Target(Class),GyroX,GyroY,GyroZ,AccX,AccY,AccZ,AccMagnitude,GyroMagnitude,AccMagnitude_mean_5,GyroMagnitude_mean_5
1,3.3511450381679397,2.6946564885496183,-0.1068702290076336,0.426025390625,-0.25390625,-0.9501953125,1.0718382103392372,4.301484383787567,1.0291898420538756,4.313995051784655
1,-1.5038167938931295,3.183206106870229,-1.656488549618321,0.3837890625,-0.1416015625,-0.919677734375,1.0065546095976132,3.890786602144551,1.0331335083811468,4.312836707025313
1,1.3587786259541987,8.725190839694656,-0.9465648854961832,0.40478515625,-0.25732421875,-0.862548828125,0.9869433910693387,8.880947000511597,1.0238768311361048,5.149284633293741
1,-1.083969465648855,4.106870229007634,-0.6259541984732825,0.346923828125,-0.106201171875,-0.969970703125,1.0356051353432614,4.29338928341638,1.0355568299380757,5.190151893525543
1,0.0534351145038167,5.083969465648855,-2.221374045801527,0.276611328125,-0.257568359375,-1.00830078125,1.0768127748441536,5.548342409267167,1.035550824238721,5.382989935825452
1,-1.106870229007634,3.656488549618321,0.7786259541984732,0.158935546875,-0.111572265625,-0.971435546875,0.9906542788730492,3.8988881227735668,1.0193140379454833,5.302470683622652
1,-0.9923664122137404,3.3053435114503817,0.6946564885496184,0.17724609375,-0.100341796875,-1.002197265625,1.0226847085861626,3.5203173808424144,1.0225400577431931,5.228376839362225
1,-0.8396946564885496,3.725190839694656,0.7404580152671756,0.18115234375,-0.095458984375,-0.980224609375,1.001383480075638,3.889783024881183,1.025428075544453,4.230144044236142
1,-0.1297709923664122,4.083969465648855,0.8778625954198473,0.306396484375,-0.16064453125,-0.94677734375,1.0080043698795147,4.179269056096919,1.0199079224517036,4.207319998772251
1,-1.3587786259541987,5.564885496183206,0.1984732824427481,0.51220703125,-0.1865234375,-0.977783203125,1.1194672964906747,5.731807880924115,1.0284388267810078,4.24401309310364
1,1.282442748091603,0.4045801526717557,1.1984732824427482,0.577392578125,-0.29736328125,-0.86083984375,1.0783563172241006,1.8013002833502634,1.045979234451218,3.824495525218979
1,-0.2366412213740458,0.7328244274809159,1.4503816793893132,0.34716796875,-0.072509765625,-1.05224609375,1.1104076307595905,1.6421442461228235,1.0635238188859037,3.4488608982750604
1,-0.8473282442748091,2.030534351145038,0.6946564885496184,0.490478515625,-0.109619140625,-0.966064453125,1.0889747737540902,2.3072890026630644,1.081042077621594,3.132362093831437
1,1.770992366412214,8.526717557251908,1.946564885496183,0.455322265625,-0.253173828125,-0.851318359375,0.9980773025323698,8.923589026646457,1.079056664152165,4.081226087941344
1,-0.6106870229007634,4.450381679389314,0.816793893129771,0.157958984375,-0.0654296875,-1.016357421875,1.0306379062267823,4.5657406842742985,1.0612907860993868,3.8480126486113813
1,-0.7480916030534351,4.374045801526719,0.8091603053435115,0.15576171875,-0.082275390625,-0.987548828125,1.003136900358825,4.510727005722712,1.0462469027263315,4.389897993085872
1,-0.5877862595419847,5.366412213740458,1.8778625954198471,0.3564453125,-0.18603515625,-1.053466796875,1.1275879709726675,5.715788717400782,1.049682970768947,5.204626887341463
1,-0.3893129770992366,2.5267175572519083,0.3816793893129771,0.516845703125,-0.183349609375,-0.808349609375,0.9768191496246661,2.5848685391116604,1.0272518459430622,5.260142794631181
1,1.3206106870229009,9.213740458015268,1.83206106870229,0.6435546875,-0.2158203125,-1.069580078125,1.2667843488979098,9.486489001406214,1.08099325521617,5.372722789583134
1,-3.709923664122138,5.793893129770992,-1.419847328244275,0.3046875,-0.197998046875,-1.033203125,1.0952380548229368,7.024862819183257,1.093913284935401,5.864547216564925
1,-5.694656488549619,4.778625954198472,-0.015267175572519,0.465087890625,-0.1669921875,-0.8388671875,0.9735970906674933,7.434017192566176,1.0880053229971347,6.449205253933618
1,1.916030534351145,4.374045801526719,-0.5267175572519084,0.257568359375,-0.132568359375,-0.9482421875,0.9915034421590746,4.8042565572143285,1.060788417234416,6.266898821896328
1,2.618320610687023,8.229007633587786,-1.312977099236641,0.0791015625,-0.00537109375,-0.870361328125,0.8739649577262961,8.734762636563994,1.040217578854742,7.496877641386794
1,-0.5954198473282443,4.2824427480916025,0.8625954198473282,0.18212890625,-0.104248046875,-0.986572265625,1.0086443521229467,4.408844694885082,0.9885895794997495,6.481348780082567
1,-0.7557251908396947,4.503816793893129,0.9541984732824428,0.222412109375,-0.087158203125,-0.990234375,1.01864017994592,4.665402555346968,0.9732700045243462,6.00945672731531
1,0.4961832061068702,8.717557251908397,1.030534351145038,0.5126953125,-0.194580078125,-0.825927734375,0.9914002787332795,8.792269517207323,0.9768306421375034,6.281107192243539
1,-0.0687022900763358,2.870229007633588,1.931297709923664,0.456298828125,-0.17919921875,-0.9375,1.0579353621790222,3.4601799671808133,0.9901170261414929,6.012291874236835
1,-2.4885496183206106,6.648854961832062,1.045801526717557,0.556396484375,-0.1875,-0.981689453125,1.1438738917388234,7.17592170662468,1.0440988129439983,5.700523688248973
1,-0.2290076335877863,6.679389312977098,-0.7557251908396947,0.380615234375,-0.243408203125,-1.003173828125,1.100215087799583,6.725905638248565,1.0624129600793257,6.16393587692167
1,-0.5725190839694656,4.908396946564887,0.916030534351145,0.455078125,-0.2421875,-0.96484375,1.0939261158432174,5.025858198001649,1.077470147258785,6.236027005452607
1,1.580152671755725,0.648854961832061,-2.4656488549618323,0.291748046875,-0.375244140625,-1.12451171875,1.2208405684342452,2.999553217318445,1.123358205198978,5.077483745474831
1,1.053435114503817,7.091603053435113,1.0610687022900758,0.242431640625,0.08056640625,-0.81005859375,0.8493874095490213,7.247511724650015,1.0816486146729782,5.834950096968671
1,-0.4045801526717557,4.068702290076335,0.9770992366412212,0.15869140625,-0.087890625,-1.02099609375,1.0369863778436301,4.203896566692998,1.0602711118939394,5.2405450689823345
1,-0.4045801526717557,4.229007633587786,0.900763358778626,0.156494140625,-0.088134765625,-0.9853515625,1.0015866685828652,4.34276010083424,1.0405454280505957,4.763915961499469
1,2.50381679389313,4.496183206106871,1.4732824427480915,0.393798828125,-0.135009765625,-0.942138671875,1.0300147721703459,5.353066702028709,1.0277631593160215,4.829357662304881
1,-3.33587786259542,4.290076335877862,0.9847328244274808,0.4921875,-0.070068359375,-0.82470703125,0.9629640686624515,5.522909995402635,0.9761878593616629,5.334029017921719
1,-3.1908396946564888,3.4656488549618323,-1.3587786259541987,0.489501953125,-0.2744140625,-1.021484375,1.1654808313224565,4.902903149894331,1.0394065437163498,4.865107302970582
1,-4.946564885496184,10.65648854961832,-0.2824427480916031,0.381103515625,-0.047119140625,-1.126220703125,1.1898878834505133,11.751979674953484,1.0699868448377265,6.37472392462268
1,-4.473282442748092,9.503816793893131,0.5114503816793893,0.517333984375,-0.245361328125,-0.778076171875,0.9660430435380357,10.51638583152042,1.0628781198287607,7.609449070759917
1,10.152671755725189,5.564885496183206,1.213740458015267,0.419921875,-0.119873046875,-1.042236328125,1.130026766114013,11.641213865596375,1.0828805186174941,8.867078503473449
1,-0.9694656488549618,9.557251908396944,-0.6717557251908397,0.1689453125,-0.1552734375,-1.11474609375,1.1381173983995116,9.629755107955418,1.1179111845649061,9.688447525984007
1,-0.7099236641221374,5.045801526717558,0.6183206106870229,0.179443359375,-0.088623046875,-1.018798828125,1.0382702036801725,5.132876876908915,1.0924690590364492,9.734442271386921
1,-0.2137404580152672,4.221374045801527,0.8854961832061069,0.26123046875,-0.13232421875,-1.034912109375,1.0755436443037327,4.318539951005653,1.069600211207093,8.247754326597356
1,1.091603053435114,5.549618320610686,0.4122137404580153,0.54931640625,-0.27587890625,-0.882080078125,1.0751385721450595,5.6709594336892435,1.0914193169284978,7.278669047031121
1,-3.541984732824428,4.923664122137406,-1.213740458015267,0.6083984375,-0.192626953125,-0.916748046875,1.1169963219598307,6.185571124367382,1.0888132280976612,6.187540498785322
1,-1.633587786259542,7.190839694656487,-1.870229007633588,0.32861328125,-0.050048828125,-0.913818359375,0.9723968159868656,7.607531867212774,1.0556691116151322,5.783095850636793
1,0.5343511450381679,4.66412213740458,-2.122137404580153,0.378662109375,-0.06396484375,-0.934326171875,1.0101692381788698,5.151993169905144,1.0500489185148716,5.78691910923604
1,0.6106870229007634,3.038167938931298,1.5114503816793892,0.549560546875,-0.17333984375,-1.087158203125,1.2304375054161842,3.447881280057105,1.081027690737362,5.612787375046329
1,2.061068702290076,-2.801526717557252,-0.2137404580152672,0.1337890625,-0.078857421875,-1.2158203125,1.2256985920351702,3.4845718715703633,1.1111396947153842,5.175509862622554
1,-1.8778625954198471,0.2824427480916031,-1.3816793893129773,0.194091796875,-0.178466796875,-1.083251953125,1.1148797321460804,2.348441987377756,1.110716376752634,4.408084035224629
1,-0.4656488549618321,4.236641221374046,0.9465648854961832,0.15625,-0.0771484375,-1.005126953125,1.0201206476721454,4.36599848571062,1.12026114308969,3.759777358924198
1,-0.6717557251908397,4.442748091603052,0.8320610687022901,0.171142578125,-0.06396484375,-1.011474609375,1.0278434553440239,4.569638058076288,1.123795986522721,3.643306336558427
1,-0.8015267175572519,4.564885496183206,0.9465648854961832,0.20458984375,-0.065185546875,-1.049560546875,1.0712999119031006,4.730392135402339,1.091968467820104,3.8998085076274736
1,0.9465648854961832,6.389312977099237,0.8778625954198473,0.445556640625,-0.23095703125,-0.984375,1.1049235317042754,6.518431417006732,1.067813455753925,4.506580416714748
1,-3.6870229007633593,3.3664122137404577,-1.870229007633588,0.4619140625,-0.17919921875,-0.924560546875,1.0489466935805953,5.331474993336132,1.054626848040828,5.103187017906422
1,-0.2595419847328244,2.053435114503817,0.4809160305343512,0.4541015625,-0.16259765625,-0.880126953125,1.003628258121517,2.124908948576685,1.0513283701307023,4.654969110479636
1,3.458015267175572,-0.2290076335877863,0.9847328244274808,0.400146484375,-0.27294921875,-1.01123046875,1.1212517763206675,3.602778486080673,1.0700100343260313,4.461597196080513
1,-4.648854961832061,7.435114503816794,3.7022900763358777,0.55517578125,-0.3251953125,-1.104248046875,1.27802030045918,9.51838914682272,1.111354112037247,5.4191965983645884
1,-5.442748091603052,4.7251908396946565,0.5267175572519084,0.3037109375,-0.112060546875,-1.280517578125,1.320803985309769,7.226919582041879,1.1545302027583457,5.560894231371618
1,-0.6183206106870229,4.33587786259542,1.267175572519084,0.19140625,-0.08642578125,-1.00634765625,1.0280279049926628,4.559373986473852,1.1503464450407592,5.406474029999162
1,-0.6412213740458015,4.557251908396948,0.7633587786259542,0.201416015625,-0.083984375,-1.0126953125,1.0359409165362008,4.665021589663452,1.156808976723696,5.914496558216515
1,-0.3587786259541985,8.442748091603054,0.7633587786259542,0.282470703125,-0.061279296875,-0.979736328125,1.0214832955057482,8.48477660670061,1.1368552805607122,6.890896182340502
1,-2.885496183206107,2.297709923664122,-1.045801526717557,0.483154296875,-0.201904296875,-0.8583984375,1.0055104659762648,3.833961391287916,1.0823533136641292,5.754010631233542
1,-3.0992366412213737,7.908396946564887,-0.900763358778626,0.41259765625,-0.145263671875,-0.826416015625,0.9350410639063405,8.541626581116978,1.0052007293834433,6.016952031048561
1,2.740458015267175,-0.1832061068702289,-2.1908396946564888,0.38916015625,-0.033203125,-1.23828125,1.2984177019833998,3.5133250886758525,1.0592786887815908,5.807742251488962
1,2.274809160305344,11.49618320610687,-0.7709923664122137,0.49365234375,-0.195556640625,-1.230712890625,1.340369074297429,11.744420558428953,1.1201643203338363,7.223622045242061
1,-5.488549618320612,1.053435114503817,0.8549618320610687,0.381591796875,-0.2509765625,-0.8740234375,0.9861635278522138,5.653747623260011,1.1131003668031298,6.657416248553941
1,-1.961832061068702,7.053435114503817,0.7480916030534351,0.12744140625,-0.18017578125,-1.031982421875,1.0553162290209583,7.359305197972945,1.1230615194120683,7.362485009890948
1,-0.3587786259541985,4.709923664122138,0.6946564885496184,0.1796875,-0.08203125,-1.026611328125,1.045441314788826,4.7743743738193976,1.1451415695885654,6.609034568431431
1,-0.5419847328244275,4.396946564885496,1.038167938931298,0.14501953125,-0.091552734375,-1.0009765625,1.0155622316184398,4.550239467819028,1.0885704755155734,6.8164174442600665
1,-3.5877862595419847,9.045801526717558,0.0458015267175572,0.407958984375,-0.195556640625,-1.009033203125,1.1058123428654223,9.731435314729971,1.0416591292291721,6.41382039552027
1,1.748091603053435,4.526717557251908,0.3053435114503817,0.507080078125,-0.2685546875,-0.99267578125,1.1465849434253776,4.862122042460829,1.073743412343805,6.255495279360434
1,0.5419847328244275,1.946564885496183,2.5877862595419847,0.455810546875,-0.09521484375,-0.875244140625,0.9914037657842633,3.2832148923175635,1.0609609196964658,5.440277218229358
1,-1.3816793893129773,7.595419847328245,5.213740458015267,0.5419921875,-0.12353515625,-1.0546875,1.1922173412582946,9.315714151667887,1.0903161249903595,6.348545173799056
1,-7.3740458015267185,11.572519083969471,1.4885496183206108,0.34326171875,-0.166259765625,-1.00927734375,1.0789400696201525,13.802736301112684,1.102991692590702,8.199044540457788
1,-1.6793893129770991,5.946564885496183,5.786259541984732,0.1220703125,-0.03369140625,-1.16650390625,1.1733574201177828,8.465387285243795,1.116500708041174,7.945834934560551
1,-4.030534351145038,9.396946564885496,4.206106870229007,0.103759765625,-0.050537109375,-1.18408203125,1.1896933828157832,11.056181388836796,1.1251223959192553,9.184646803835744
1,-0.7709923664122137,5.106870229007634,-0.3511450381679389,0.16845703125,-0.0732421875,-0.992431640625,1.0092882396624752,5.176664524848056,1.1286992906948978,9.563336730341844
1,-0.3282442748091603,4.786259541984733,0.7938931297709924,0.149169921875,-0.078125,-1.01806640625,1.0318984391653976,4.862745213218813,1.0966355102763183,8.672742942652029
1,1.6793893129770991,5.534351145038168,1.763358778625954,0.55029296875,-0.193603515625,-0.88916015625,1.0634427376124078,6.046389438605836,1.0935360438747694,7.12147357015066
1,-2.618320610687023,6.4045801526717545,0.5114503816793893,0.590087890625,-0.2265625,-0.860595703125,1.0677823979190353,6.937999080806037,1.0724210394350198,6.815995929263107
1,0.0610687022900763,3.259541984732825,0.4351145038167939,0.504638671875,-0.18994140625,-0.926513671875,1.0719913764258024,3.2890223422876184,1.0488806381570235,5.262564119953272
1,0.1984732824427481,3.740458015267175,1.717557251908397,0.424560546875,-0.234130859375,-1.022216796875,1.1313691250373858,4.120730605293578,1.073296815232006,5.051377336042377
1,3.9007633587786255,6.053435114503817,1.099236641221374,0.355712890625,-0.20068359375,-0.974853515625,1.0569507757145695,7.284802856639389,1.07830728254184,5.5357888647264915
1,-2.33587786259542,-3.549618320610687,2.5801526717557253,0.21240234375,-0.151123046875,-0.810302734375,0.8512011820144979,4.971247672420535,1.0358589714222581,5.320760511489431
1,-1.3206106870229009,6.854961832061068,2.977099236641221,0.03564453125,0.015380859375,-1.17431640625,1.1749579249620221,7.589310520100154,1.0572940768308556,5.451022799348255
1,-0.6717557251908397,4.442748091603052,1.1526717557251909,0.169921875,-0.07080078125,-1.010009765625,1.0266479050224537,4.638741050782618,1.0482253825501857,5.720966541047256
1,-0.7938931297709924,4.274809160305344,0.8702290076335878,0.161865234375,-0.078857421875,-0.994384765625,1.0105542584102705,4.434135562232508,1.0240624092247628,5.78364753243504
1,1.824427480916031,1.5038167938931295,0.1068702290076336,0.375732421875,-0.194580078125,-1.076171875,1.1563659300551015,2.36673231028876,1.0439454400928692,4.800033423164915
1,-2.603053435114504,4.076335877862595,1.5267175572519085,0.605712890625,-0.187255859375,-0.990478515625,1.1760104390073527,5.07181110401723,1.10890729149144,4.820146109484254
1,2.961832061068702,7.580152671755725,0.1832061068702289,0.48828125,-0.101318359375,-0.953369140625,1.0759166823430406,8.140314991613929,1.0890990429676437,4.930347003787009
1,-3.259541984732825,5.687022900763358,3.6412213740458017,0.282958984375,-0.126220703125,-1.045654296875,1.0905917482307719,7.498355587650594,1.1018878116093074,5.502269911160605
1,-8.16793893129771,2.4122137404580157,-0.1679389312977099,0.252685546875,-0.323486328125,-0.85595703125,0.949292278189192,8.518345203131219,1.0896354155650916,6.319111839340346
1,-3.725190839694656,1.633587786259542,5.045801526717558,0.108154296875,0.054443359375,-1.05078125,1.057734686329291,6.481185763005606,1.0699091668199296,7.142002529883716
1,1.893129770992366,5.824427480916032,7.33587786259542,0.0458984375,-0.071044921875,-1.2939453125,1.2967067977109894,9.556306808866333,1.094048438560657,8.038901670853537
1,-0.6717557251908397,4.374045801526719,0.7328244274809159,0.201416015625,-0.085205078125,-1.004150390625,1.0276897993465137,4.485595174521763,1.0844030619613516,7.3079577074351025
1,-0.4427480916030535,3.801526717557252,0.7709923664122137,0.183837890625,-0.098876953125,-0.930908203125,0.9540246875915471,3.904108155006168,1.0570896498335067,6.589108220906217
1,-5.755725190839693,3.877862595419847,0.8625954198473282,0.468994140625,-0.167724609375,-0.98974609375,1.1080091960917844,6.993587179678578,1.088833033414025,6.284156616215689
1,0.5419847328244275,3.549618320610687,0.900763358778626,0.547119140625,-0.208984375,-0.926513671875,1.09610282692988,3.7020146273546723,1.096506661534143,5.728322389085504
1,0.7175572519083969,2.404580152671756,-0.2824427480916031,0.274658203125,-0.086669921875,-1.07763671875,1.1154594127533008,2.5252065314224876,1.0602571845426052,4.3221023335967335
1,-1.870229007633588,7.290076335877862,1.709923664122137,0.45703125,-0.210205078125,-1.078857421875,1.1903768626283324,7.71795364465513,1.092794597198969,4.968574027623407
1,3.618320610687023,7.122137404580152,0.4503816793893129,0.2060546875,-0.02294921875,-0.92822265625,0.9510954213209964,8.001245459837596,1.092208743944859,5.788001488589693
1,-5.854961832061068,-2.061068702290076,3.0687022900763363,0.16064453125,0.004638671875,-1.0703125,1.0823109674920357,6.924270069514285,1.0870690982249092,5.774138066556834
1,-4.961832061068702,2.770992366412214,2.4885496183206106,0.0859375,-0.088623046875,-1.135498046875,1.1421887378190165,6.204115996643495,1.0962862804027362,6.274558340414599
1,-0.2977099236641221,4.519083969465648,1.16030534351145,0.156005859375,-0.1015625,-1.008056640625,1.0251004635028427,4.675153431911163,1.0782144905526447,6.704547720512333
1,-0.7557251908396947,4.587786259541986,1.1832061068702289,0.177490234375,-0.06982421875,-1.00634765625,1.0242625689062392,4.797799497545405,1.0449916318082262,6.120516891090388
1,4.732824427480916,5.839694656488549,1.6183206106870232,0.4541015625,-0.231201171875,-0.969970703125,1.0956757621952407,7.688993584426728,1.0739076999830748,6.058066516008216
1,-0.4732824427480916,5.114503816793894,1.709923664122137,0.5107421875,-0.209228515625,-0.86962890625,1.0299944603872864,5.413500207789576,1.0634443985621251,5.755912543663273
1,-0.015267175572519,1.625954198473282,0.6793893129770993,0.349609375,-0.151611328125,-0.888671875,0.966928338254564,1.7622513954513839,1.0283923186492347,4.867539623424852
1,6.732824427480916,5.786259541984732,2.3969465648854964,0.4453125,-0.170654296875,-0.903076171875,1.0212603409055672,9.195492215939801,1.0276242941297795,5.771607380230579
1,-11.66412213740458,7.7328244274809155,1.946564885496183,0.390625,0.0576171875,-0.630615234375,0.744031722943482,14.12931115504163,0.971578124937228,7.637909711729824
1,7.290076335877862,13.2824427480916,0.900763358778626,0.1845703125,-0.09912109375,-0.91162109375,0.9353845252368088,15.178269761991176,0.9395198775455416,9.135764947242714
1,-3.16793893129771,0.0687022900763358,1.961832061068702,0.086181640625,0.056884765625,-1.03662109375,1.041751622868174,3.7268407683895592,0.9418713100417191,8.798433059362711
1,-0.1603053435114504,4.2671755725190845,0.8473282442748091,0.2001953125,-0.109375,-1.009033203125,1.0344994242534262,4.35344120477212,0.9553855272414916,9.316671021226856
1,-0.2595419847328244,4.656488549618321,0.7175572519083969,0.15673828125,-0.086669921875,-1.005126953125,1.0209597230377743,4.718594712870764,0.9553254036679331,8.42129152061305
1,-2.5877862595419847,6.541984732824428,0.5801526717557252,0.4091796875,-0.10791015625,-0.992919921875,1.0793343271390718,7.059091945294912,1.022385924507051,7.007247678663707
1,-0.4580152671755725,6.0,1.312977099236641,0.53662109375,-0.177978515625,-1.012939453125,1.1600365882068973,6.159032947475259,1.0673163371010685,5.203400315760523
1,-0.1755725190839695,13.564885496183212,0.0458015267175572,0.55712890625,-0.2626953125,-0.99609375,1.1711550726431819,13.566098997643678,1.0931970270560702,7.171251961611347
1,0.8396946564885496,6.66412213740458,-0.5954198473282443,0.353515625,-0.08642578125,-1.003173828125,1.0671459329533053,6.743154734467659,1.0997263287960461,7.649194667550455
1,1.213740458015267,-0.0381679389312977,0.0305343511450381,0.205322265625,-0.112060546875,-0.9287109375,0.9577154088555931,1.2147242640143572,1.0870774659596099,6.948420577779172
1,-6.709923664122138,10.19083969465649,2.725190839694656,0.221923828125,-0.032470703125,-0.879638671875,0.9077823115202787,12.502117995495334,1.0527670628358512,8.037025787819257
1,5.137404580152672,2.862595419847328,4.625954198473282,-0.017333984375,0.16357421875,-0.861572265625,0.8771338329742966,7.482434804545719,0.996186511789331,8.30170615923335
1,-0.3435114503816794,4.541984732824427,0.6946564885496184,0.1611328125,-0.107177734375,-1.027587890625,1.0456518172743043,4.607621193939188,0.9710858607155556,6.5100105984924515
1,-2.259541984732825,0.7251908396946565,0.9389312977099236,0.241943359375,-0.12890625,-1.038818359375,1.0743821453325113,2.5520626396243955,0.9725331031913967,5.671792179523799
1,-1.374045801526718,4.732824427480916,0.7480916030534351,0.2470703125,-0.09912109375,-0.998046875,1.032940605863817,4.984703599273715,0.9875781425930417,6.42578804657567
1,-0.7938931297709924,1.5038167938931295,0.1679389312977099,0.475341796875,-0.210693359375,-0.934814453125,1.0696819982183814,1.708781652446564,1.0199580799326622,4.267120777965917
1,-1.175572519083969,6.160305343511451,0.7251908396946565,0.5224609375,-0.21826171875,-0.950439453125,1.1063176592379027,6.313258621892359,1.0657948451853834,4.0332855414352435
1,5.351145038167939,2.5267175572519083,1.8167938931297711,0.525390625,-0.230224609375,-1.07177734375,1.2156254991466606,6.190298448681455,1.0997895815598546,4.349820992383697
1,-2.49618320610687,11.09160305343512,3.3511450381679397,0.498046875,-0.235595703125,-1.35986328125,1.4672369163568115,11.852626795789146,1.1783605357647147,6.209933823616647
1,1.6488549618320612,4.549618320610686,4.419847328244275,0.088623046875,0.049560546875,-0.8818359375,0.8876626120945172,6.5538385663199445,1.1493049370108548,6.523760817025893
1,0.6946564885496184,5.633587786259542,7.549618320610688,0.08837890625,0.0771484375,-1.23681640625,1.2423677133794981,9.44545370903258,1.1838420800430778,8.071095228343097
1,-0.8549618320610687,4.732824427480916,0.8549618320610687,0.177978515625,-0.091796875,-1.049560546875,1.0684944360362356,4.884828198608678,1.1762774354027445,7.78540914368636
1,-4.099236641221374,7.435114503816794,0.5419847328244275,0.409912109375,-0.169677734375,-1.06396484375,1.1527530783697162,8.507550539151296,1.1637029512473558,8.24885956178033
1,-1.603053435114504,2.091603053435115,3.9007633587786255,0.437255859375,-0.105224609375,-0.992431640625,1.0895804083634766,4.707498107292388,1.0881716496486888,6.819833824080978
1,-1.748091603053435,4.0534351145038165,2.6946564885496183,0.50439453125,-0.091552734375,-0.83740234375,0.9818545878308252,5.171782484931192,1.1070100447959503,6.543422607803227
1,-1.740458015267176,1.297709923664122,2.6564885496183206,0.427001953125,-0.17138671875,-0.930908203125,1.0384094365816754,3.430769092075033,1.0662183894363857,5.340485684411718
1,-3.877862595419847,3.442748091603054,1.5496183206106868,0.2607421875,-0.1259765625,-1.006591796875,1.047417599707797,5.412176056889235,1.0620030221706982,5.445955256067829
1,-0.9236641221374046,2.106870229007634,1.022900763358779,0.1611328125,-0.1669921875,-1.058837890625,1.0839685662293879,2.517614653612128,1.0482461197426325,4.247968078959995
1,-4.061068702290076,1.190839694656489,-1.4045801526717558,0.1201171875,-0.124755859375,-1.10693359375,1.1203991003894973,4.459060841519094,1.0544098581478365,4.198280625805337
1,0.0,2.7480916030534357,0.2442748091603053,0.061279296875,-0.122314453125,-1.146484375,1.1546178587688234,2.758926900293501,1.0889625123354363,3.7157095088777985
1,-0.3511450381679389,4.679389312977099,0.7404580152671756,0.160888671875,-0.093017578125,-1.0078125,1.0248041128597172,4.750606829933167,1.0862414475910447,3.9796770564494253
1,-0.1908396946564886,6.114503816793892,0.7480916030534351,0.157958984375,-0.1025390625,-1.0087890625,1.026216679216816,6.163052633330556,1.0820012634928484,4.129852371737689
1,-5.557251908396948,1.221374045801527,0.5496183206106869,0.41064453125,-0.08984375,-0.958251953125,1.0463974560975728,5.716369794851451,1.0744870414664853,4.769603399985554
1,1.015267175572519,2.671755725190839,1.4885496183206108,0.4951171875,-0.162109375,-1.00830078125,1.134940943084776,3.222549620888321,1.0773954100055412,4.5223011558594
1,-2.33587786259542,-1.267175572519084,1.175572519083969,0.43310546875,-0.188720703125,-0.85986328125,0.9811017853878201,2.9058613298259512,1.0426921953293404,4.551688041765889
1,1.137404580152672,7.450381679389312,3.717557251908397,0.418701171875,-0.072265625,-1.2783203125,1.3470841893646575,8.403696107591522,1.1071482106303285,5.28230589729756
1,2.83206106870229,7.213740458015268,0.5419847328244275,0.132080078125,0.00439453125,-0.831298828125,0.8417376079185316,7.768678699951508,1.0702523963706716,5.6034311106217505
1,-3.221374045801527,5.755725190839693,-0.9694656488549618,0.16015625,-0.15478515625,-1.060546875,1.0836826763779446,6.666744847355424,1.0777094404267458,5.793506121122546
1,0.7175572519083969,3.091603053435115,-6.160305343511451,0.011474609375,-0.1015625,-1.08935546875,1.0941398198411805,6.9298095049627015,1.0695492157780269,6.534958097937421
1,0.0763358778625954,4.022900763358779,0.7175572519083969,0.18701171875,-0.095458984375,-0.99267578125,1.014638362830833,4.0871073056439355,1.0762565312666292,6.7712072931010185
1,-0.7938931297709924,5.1679389312977095,0.7404580152671756,0.197021484375,-0.095703125,-0.99560546875,1.019414931637261,5.280732635865359,1.01072267972115,6.146614598755785
1,1.541984732824427,2.66412213740458,0.9770992366412212,0.503662109375,-0.18408203125,-0.97216796875,1.1102577512058636,3.2295489774142805,1.0644267083786165,5.23878865424834
1,-2.404580152671756,7.183206106870228,1.33587786259542,0.460693359375,-0.189453125,-1.077392578125,1.1869733043937098,7.691880481922037,1.0850848339817696,5.443815781161662
1,0.9770992366412212,9.030534351145038,0.2213740458015267,0.37890625,-0.233154296875,-1.014892578125,1.108123556997841,9.0859385895795,1.0878815814131015,5.875041598085022
1,1.541984732824427,3.541984732824428,-0.1526717557251908,0.242431640625,-0.111328125,-1.0166015625,1.0510213074289152,3.8660938204887327,1.095158170332718,5.830838901053982
1,2.816793893129771,3.977099236641221,0.6946564885496184,0.0888671875,-0.09521484375,-0.9228515625,0.9319969151736439,4.92282376401486,1.0776745670399948,5.759257126683883
1,-0.6183206106870229,4.984732824427481,-3.2366412213740463,0.195556640625,-0.212890625,-1.171875,1.207002830788075,5.975427022767731,1.097023582956437,6.308432735754572
1,-1.7557251908396951,4.916030534351145,-2.3053435114503817,0.08154296875,-0.12744140625,-0.9931640625,1.0046220298306447,5.706534488304461,1.060553328043824,5.911363537031057
1,-0.3129770992366412,4.2595419847328255,0.7404580152671756,0.16552734375,-0.07568359375,-1.0029296875,1.0193111722926878,4.33473536178642,1.0427908511027932,4.96112289147244
1,-0.2519083969465649,5.122137404580153,1.129770992366412,0.278076171875,-0.08447265625,-0.997802734375,1.0392652614923739,5.2512981182793155,1.0404396419154849,5.238163751030558
1,-1.6793893129770991,6.274809160305344,-0.9389312977099236,0.463134765625,-0.131591796875,-0.97412109375,1.0866103797700495,6.563167714192042,1.0713623348347663,5.566232541065994
1,0.4732824427480916,2.816793893129771,-2.7022900763358777,0.420654296875,-0.131591796875,-0.810302734375,0.9224190803641226,3.93200912558073,1.0144455847499758,5.157548961628594
1,0.2442748091603053,2.961832061068702,1.0,0.45166015625,-0.215087890625,-1.154296875,1.258038541966045,3.135621045401497,1.0651288871770557,4.6433662730480005
1,6.587786259541985,5.938931297709924,2.351145038167939,0.27783203125,-0.195556640625,-1.14501953125,1.1943629114406584,9.17593132879875,1.10013923500665,5.611605466450467
1,-2.2519083969465647,-3.343511450381679,-0.0076335877862595,0.232666015625,-0.255126953125,-1.11083984375,1.163266261653016,4.031155977971373,1.1249394350387782,5.367577038388879
1,4.198473282442748,13.3969465648855,-2.33587786259542,0.145751953125,0.002685546875,-0.9013671875,0.9130792138163206,14.23241653953208,1.0902332018480325,6.901426803456886
1,1.106870229007634,2.038167938931298,-8.351145038167939,-0.078857421875,-0.21337890625,-1.121826171875,1.1446584689421273,8.667232182171414,1.1346810795636333,7.848471414775022
1,-0.6793893129770993,3.969465648854962,0.8549618320610687,0.18994140625,-0.071533203125,-0.989990234375,1.0105817142197941,4.1169390462221145,1.0851897140143834,8.044735014939146
1,-0.8854961832061069,3.977099236641221,0.9770992366412212,0.17919921875,-0.063720703125,-0.961181640625,0.9798177556474068,4.19000533971135,1.042280682855733,7.0475498171216655
1,-0.6183206106870229,5.427480916030534,1.3893129770992372,0.314697265625,-0.10205078125,-0.92529296875,0.9826575237404819,5.6364935926347295,1.006158935273226,7.368617340054338
1,-1.4045801526717558,5.221374045801528,-1.045801526717557,0.447021484375,-0.144775390625,-0.96728515625,1.0753737465295665,5.507203751881167,1.0386178418158754,5.623574782524154
1,-5.0534351145038165,3.534351145038168,-2.145038167938931,0.47509765625,-0.146728515625,-1.0390625,1.1519105517261352,6.529167880736995,1.0400682583726768,5.195961922237272
1,1.748091603053435,2.648854961832061,-2.0,0.548583984375,-0.3427734375,-1.056640625,1.2389218812212122,3.7513006892927496,1.0857362917729607,5.1228342508513975
1,-2.450381679389313,8.442748091603054,-0.5572519083969466,0.332275390625,-0.120849609375,-1.015625,1.075409551717896,8.808796478655063,1.1048546509870585,6.046592478640141
1,-5.0534351145038165,1.068702290076336,3.7633587786259537,0.304931640625,-0.104248046875,-0.838623046875,0.898409469830664,6.390790274917151,1.088005040205095,6.197451815096626
1,-0.2900763358778626,-2.152671755725191,1.748091603053435,0.4404296875,-0.073486328125,-1.081298828125,1.1698656785106318,2.7881829604958193,1.1069034266013078,5.653647656819556
1,7.343511450381678,2.2442748091603053,1.885496183206107,0.482666015625,-0.16455078125,-1.033935546875,1.1528513162333656,7.906897349643736,1.107091579502754,5.929193550600904
1,-4.2595419847328255,2.053435114503817,2.045801526717557,0.478271484375,-0.128662109375,-1.036376953125,1.1486403876426028,5.152241995083195,1.0890352807870323,6.209381811758993
1,-7.541984732824428,2.267175572519084,2.969465648854962,0.491455078125,-0.305908203125,-0.72900390625,0.9308891544549087,8.41661125551808,1.0601312013344344,6.130944767131597
1,-2.572519083969466,2.198473282442748,-1.030534351145038,0.5166015625,-0.18212890625,-0.7685546875,0.9437819772317574,3.537391731190033,1.0692057028146533,5.560265058386173
1,-11.480916030534347,-1.1450381679389308,0.2824427480916031,0.494384765625,-0.15869140625,-0.456787109375,0.6915589072456929,11.541330911648235,0.9735443485616655,7.310894648616656
1,-1.931297709923664,1.740458015267176,0.0381679389312977,0.25439453125,-0.126220703125,-1.00244140625,1.0418910770285703,2.6001080244532937,0.9513523007207063,6.249536783578567
1,3.946564885496183,-0.4351145038167939,1.748091603053435,0.191650390625,-0.219482421875,-0.884033203125,0.9308152931523408,4.338262702917974,0.907787281822654,6.086740925145523
1,2.977099236641221,0.7938931297709924,0.8015267175572519,0.100341796875,-0.032958984375,-0.947021484375,0.9528926816378451,3.183682026406755,0.9121879872592412,5.040155079323259
1,2.595419847328244,7.33587786259542,1.4351145038167938,0.031005859375,0.017822265625,-1.03369140625,1.0343098761119383,7.91270256220264,0.9302935670352774,5.915217245525779
1,-0.3893129770992366,5.854961832061068,-0.3969465648854962,0.165771484375,-0.03955078125,-1.009033203125,1.0233242176055806,5.881301660721389,0.996646629107255,4.783211395340411
1,-1.0610687022900758,4.473282442748092,0.4580152671755725,0.19580078125,-0.021728515625,-0.98486328125,1.0043733155972896,4.620162398503303,0.989143076820999,5.1872222701504125
1,-0.2977099236641221,4.648854961832061,0.7938931297709924,0.184326171875,-0.0625,-1.02197265625,1.0403415293838714,4.725542292297917,1.011048324067305,5.264678188026401
1,-0.8091603053435115,4.137404580152672,0.8473282442748091,0.181396484375,-0.068359375,-1.009521484375,1.0279646473049078,4.300095605118303,1.0260627172007175,5.487960903768711
1,-0.7709923664122137,4.312977099236641,0.7862595419847328,0.182861328125,-0.048828125,-1.014892578125,1.0323901376165232,4.451337411943478,1.0256787695016345,4.7956878737168775
1,-0.8396946564885496,4.2824427480916025,0.6106870229007634,0.18603515625,-0.061767578125,-0.98486328125,1.0041812564586667,4.4065112784103,1.0218501772722517,4.50072979725466
1,-0.816793893129771,4.206106870229007,1.0,0.190673828125,-0.072021484375,-0.9736328125,0.9947383859689344,4.399828095237556,1.0199231913465807,4.456662936601511
1,-0.9465648854961832,4.114503816793893,0.8702290076335878,0.197509765625,-0.06787109375,-0.986328125,1.0081962919243848,4.310733727173699,1.0134941438546834,4.373701223576667
1,-0.6717557251908397,4.236641221374046,0.9847328244274808,0.193115234375,-0.0634765625,-1.009521484375,1.029784635323926,4.401145683623454,1.013858141458487,4.393911239277697
1,-5.0,12.22137404580153,-0.931297709923664,0.503662109375,-0.06201171875,-0.965576171875,1.0908062694058844,13.237420405498208,1.0255413678163592,6.151127837988644
1,5.061068702290076,-0.4427480916030535,0.9847328244274808,0.329345703125,-0.058837890625,-0.87939453125,0.940885344307428,5.174953238187108,1.0128821853861116,6.304816229944005
1,-9.83969465648855,4.755725190839693,3.717557251908397,0.304931640625,-0.01611328125,-0.804443359375,0.8604487560159705,11.543688532914134,0.9860242593955189,7.733588317479321
1,-2.221374045801527,3.221374045801527,-1.809160305343511,-0.013916015625,0.125244140625,-1.136474609375,1.1434396739687795,4.311010833291302,1.0130729358043977,7.733643738702841
1,2.786259541984733,-1.290076335877863,-4.923664122137406,0.1484375,-0.136962890625,-1.084716796875,1.1033598933427686,5.8025862833150645,1.0277879874081663,8.013931858641163
1,-1.5267175572519085,0.9694656488549618,-4.8396946564885495,0.034912109375,-0.105712890625,-1.19775390625,1.2029166598573813,5.166563123777239,1.0502100654984656,6.39976040229697
1,0.8473282442748091,-1.694656488549618,-1.229007633587786,-0.032470703125,-0.011962890625,-0.74462890625,0.7454325357378822,2.2583811749007743,1.0111195037845564,5.8164459896397025
1,4.114503816793893,7.305343511450381,4.541984732824427,0.08447265625,0.116943359375,-0.87255859375,0.8844036852494559,9.535555085673403,1.0159104896312534,5.414819300191556
1,-2.3587786259541983,5.274809160305344,13.67175572519084,0.2197265625,0.1884765625,-0.9794921875,1.0213756029264738,14.842653162194017,0.9914976754227922,7.5211477659721
1,2.908396946564885,4.1603053435114505,2.717557251908397,0.052978515625,-0.030517578125,-0.98681640625,0.9887085846378643,5.757780020757809,0.9685674136818114,7.512186513460648
1,-5.190839694656488,7.7328244274809155,2.893129770992366,0.19384765625,-0.149169921875,-0.792724609375,0.8296028481957847,9.752517122962121,0.8939046513494923,8.429377313297625
1,-1.931297709923664,5.8473282442748085,3.8091603053435112,0.206298828125,0.024658203125,-0.940673828125,0.9633454647147326,7.240915734384359,0.9374872371448623,9.425884225194341
1,-14.64885496183206,-0.1221374045801527,4.946564885496184,0.04931640625,-0.014404296875,-0.794921875,0.7965804284862853,15.461965379757297,0.9199225857922281,10.611166284011121
1,0.3740458015267176,1.175572519083969,0.5038167938931297,0.134033203125,-0.096923828125,-1.118896484375,1.1310563517106857,1.332558580728797,0.9418587355490704,7.909147367718077
1,1.236641221374046,1.33587786259542,0.1755725190839695,0.057373046875,-0.102783203125,-1.285888671875,1.2912651663422223,1.8288457790725523,1.002370051889942,7.123360519381026
1,1.801526717557252,2.50381679389313,0.3129770992366412,-0.069580078125,-0.07861328125,-1.029296875,1.0346368890318662,3.100411539796042,1.0433768600571582,5.79293940274781
1,-1.0,9.717557251908396,2.259541984732825,-0.201904296875,0.136474609375,-0.861328125,0.8951406610229828,10.026786570227163,1.0297358993188086,6.3501135699163695
1,2.0839694656488548,-1.6412213740458013,0.0076335877862595,-0.040283203125,-0.06787109375,-0.854736328125,0.8583725370941447,2.652658026215225,1.0420943210403804,3.7882520992079565
1,-0.6946564885496184,4.679389312977099,1.396946564885496,0.211181640625,-0.06494140625,-0.990478515625,1.0148215416995727,4.932615095933774,1.018847359038158,4.508263402248952
1,-1.068702290076336,8.648854961832061,1.847328244274809,0.441650390625,-0.142822265625,-0.931396484375,1.0406501228576215,8.908279204072857,0.9687243503412375,5.9241500872490125
1,-0.6870229007633588,6.137404580152673,1.015267175572519,0.533935546875,-0.146728515625,-0.919189453125,1.0730916439197808,6.258634266710853,0.9764153013188205,6.555794632631974
1,-0.7251908396946565,6.106870229007634,1.770992366412214,0.546630859375,-0.127685546875,-1.131103515625,1.2627367335913902,6.399701532869101,1.049934515832502,5.830377625160362
1,-0.3740458015267176,2.66412213740458,0.916030534351145,0.458740234375,-0.138427734375,-0.88623046875,1.0074766915514572,2.8419304995922325,1.0797553467239644,5.868232119835763
1,-3.389312977099237,2.030534351145038,1.5572519083969465,0.36572265625,-0.12548828125,-0.881103515625,0.9622077609707632,4.246827723621389,1.0692325905782027,5.731074645373286
1,1.312977099236641,0.3816793893129771,0.4732824427480916,0.306640625,-0.021484375,-0.912109375,0.9625141885875874,1.4469223510471432,1.0536054037241958,4.238803274768144
1,2.473282442748092,3.7022900763358777,1.32824427480916,0.448974609375,-0.129150390625,-0.8310546875,0.9533676714037175,4.646322277296787,1.0296606092209832,3.91634087688533
1,-2.206106870229008,6.7251908396946565,0.8473282442748091,0.60400390625,-0.15966796875,-0.950927734375,1.1377952957424198,7.128328310812457,1.004672321651189,4.062066232474002
1,-0.1145038167938931,4.251908396946565,0.4580152671755725,0.2392578125,-0.102294921875,-0.972900390625,1.007096679550665,4.278038583866558,1.0045963192510308,4.349287849328867
1,-1.305343511450382,6.610687022900763,1.0610687022900758,0.361328125,-0.112548828125,-0.90380859375,0.9798444911130945,6.821361402873602,1.0081236652794967,4.86419458517931
1,-1.633587786259542,3.030534351145038,0.1908396946564886,0.47998046875,-0.207275390625,-0.82666015625,0.978116226156938,3.4480671829219065,1.011244072793367,5.264423551554263
1,2.442748091603054,3.183206106870229,-0.015267175572519,0.556884765625,-0.213134765625,-0.8720703125,1.056434427897483,4.012487064713885,1.0318574240921201,5.137656509037682
1,-0.099236641221374,5.244274809160307,-0.3435114503816794,0.638916015625,-0.135986328125,-0.900146484375,1.1121913728274093,5.25644997136828,1.026736639509118,4.7632808411488465
1,-1.1984732824427482,3.33587786259542,0.099236641221374,0.253662109375,-0.038818359375,-1.185546875,1.213001534862758,3.5460213245049985,1.0679176105715367,4.616877389276534
1,-6.0381679389312986,6.106870229007634,-0.2900763358778626,0.4052734375,-0.244384765625,-0.997802734375,1.1043463086998024,8.592873811089857,1.0928179740888784,4.971179870919785
1,-3.374045801526718,3.1297709923664123,1.4427480916030535,0.469970703125,-0.067138671875,-0.910888671875,1.0271797484409178,4.822983888764565,1.102630678545674,5.246163212088317
1,-0.3511450381679389,5.076335877862594,-1.282442748091603,0.150146484375,-0.04931640625,-0.7890625,0.8047333120990066,5.247584985956655,1.0522904553859789,5.493182796336871
1,-3.229007633587786,-0.4656488549618321,3.885496183206107,0.385498046875,-0.069091796875,-0.675048828125,0.7804315094182139,5.073499752991488,0.9859384827041398,5.456592752661512
1,3.946564885496183,11.190839694656493,2.16793893129771,0.615966796875,-0.083740234375,-1.14013671875,1.2985912594606681,12.062761983756754,1.0030564276237217,7.1599408845118635
1,1.5038167938931295,0.2900763358778626,1.83206106870229,0.2763671875,-0.160888671875,-0.979248046875,1.030141118669119,2.387898027489012,0.988215389617585,5.918945727791694
1,8.267175572519085,7.587786259541985,0.4732824427480916,0.469482421875,-0.266357421875,-0.964111328125,1.1049301668686866,11.231415250891759,1.003765473303139,7.200632000217134
1,-6.641221374045801,7.022900763358778,1.137404580152672,0.3232421875,-0.055908203125,-0.792724609375,0.8579181460169716,9.732453218486096,1.0144024400867317,8.097605646723022
1,-5.961832061068701,0.1908396946564886,1.938931297709924,0.03271484375,-0.053466796875,-1.093994140625,1.095788364188766,6.272106176611039,1.0774738110408424,8.337326931446933
1,-8.221374045801527,7.099236641221374,0.4503816793893129,0.2177734375,-0.161865234375,-1.014404296875,1.050067474831167,10.871660211125468,1.027769054114942,8.099106576920676
1,2.946564885496183,5.442748091603052,0.9541984732824428,-0.020263671875,-0.0634765625,-1.134033203125,1.1359890827708783,6.262287612326852,1.048938646935294,8.873984493888242
1,3.870229007633588,1.229007633587786,1.038167938931298,0.017578125,-0.024658203125,-1.218505859375,1.21888208896147,4.191291567568448,1.0717290313538506,7.465959757223581
1,-1.908396946564886,4.145038167938932,0.8702290076335878,0.150634765625,-0.07958984375,-0.995361328125,1.009836397328702,4.645494467229043,1.1021126816161968,6.448568006972171
1,0.3587786259541985,6.99236641221374,1.1450381679389308,0.34326171875,-0.110107421875,-0.983642578125,1.0476187156649885,7.094576981831501,1.092478751911441,6.613062168016263
1,0.3206106870229007,5.610687022900763,0.4503816793893129,0.485595703125,-0.17138671875,-1.018798828125,1.141546164833568,5.637858080752818,1.1107744899119214,5.566301741941733
1,-2.099236641221374,3.0229007633587788,3.2442748091603053,0.59619140625,-0.167724609375,-0.801513671875,1.012916533421631,4.9061229640433615,1.086159980042072,5.2950688122850345
1,0.2137404580152672,4.5114503816793885,2.893129770992366,0.494384765625,-0.107421875,-0.909912109375,1.0411031661165304,5.363680583475308,1.050604195473084,5.529546615466407
1,-5.450381679389314,5.061068702290076,1.083969465648855,0.4658203125,-0.1962890625,-1.076904296875,1.1896389470013853,7.516386542932841,1.0865647054076208,6.103725030607166
1,0.2595419847328244,8.931297709923664,2.427480916030534,0.62939453125,-0.313232421875,-1.153564453125,1.3509119044536788,9.258947263205421,1.1472233431653587,6.5365990868819495
1,2.137404580152672,0.2671755725190839,0.2442748091603053,0.37646484375,-0.122802734375,-0.760986328125,0.8578499179593473,2.1678448533506325,1.0904840937905145,5.842596441401513
1,1.793893129770992,0.1984732824427481,0.9541984732824428,0.5546875,-0.227294921875,-0.8876953125,1.071141527530739,2.0415530684500243,1.102129092612336,5.269682462282846
2,-1.32824427480916,4.3816793893129775,1.122137404580153,0.162353515625,-0.067138671875,-0.972900390625,0.9886361491343585,4.714078857958503,1.0916356892159018,5.139762117179485
2,-0.4961832061068702,2.725190839694656,5.458015267175573,0.31640625,-0.1328125,-0.931396484375,0.9925983509463544,6.120685708603228,1.0522275700048955,4.860621950313562
2,-1.32824427480916,1.732824427480916,4.099236641221374,0.171875,-0.0732421875,-0.9423828125,0.9607241013684393,4.6444218575372505,0.9741900093878476,3.9377168691799276
2,-1.076335877862595,4.99236641221374,3.740458015267175,0.337890625,-0.156982421875,-1.0908203125,1.1526935886883507,6.3303433935095965,1.0331587435336484,4.77021657721172
2,7.0458015267175576,4.030534351145038,1.038167938931298,0.256591796875,-0.16943359375,-0.92626953125,0.975972508545541,8.183295117437748,1.0141249397366088,5.9985649870092645
2,-3.732824427480916,7.557251908396948,0.9389312977099236,0.13525390625,-0.053466796875,-0.878662109375,0.8906174374978747,8.481015658232614,0.9945211974093121,6.751952347064088
2,0.1603053435114504,7.770992366412214,-3.839694656488549,0.21240234375,-0.18212890625,-1.090087890625,1.125423166373243,8.669329571371822,1.0210861604946897,7.261681119617807
2,7.229007633587786,-1.4427480916030535,-33.23664122137404,0.03125,-0.6611328125,-1.219482421875,1.3875195622139083,34.04430044957063,1.1064452526637836,13.141656838024483
2,-3.618320610687023,-1.1450381679389308,-39.42748091603053,-0.15185546875,-0.4423828125,-0.953369140625,1.0619205970696413,39.609716078655644,1.0882906543400417,19.79753137505369
2,-2.618320610687023,1.625954198473282,-18.34351145038168,0.10302734375,-0.15380859375,-0.946044921875,0.9639879207111508,18.60063822039892,1.0858937367731636,21.880999995645926
2,1.908396946564886,2.312977099236641,-1.4122137404580148,0.14013671875,0.0078125,-0.90625,0.9170541955622179,3.314542142738533,1.0911810883860322,20.84770529254711
2,-1.0610687022900758,3.152671755725191,2.473282442748092,0.06494140625,-0.000244140625,-0.943115234375,0.9453485024902634,4.145157660684678,1.0551661556094363,19.942870910409678
2,-0.9847328244274808,4.809160305343512,1.022900763358779,0.203125,-0.070068359375,-1.00390625,1.0266436087560116,5.01438406483554,0.982990964917857,14.13688763346266
2,-4.190839694656488,4.312977099236641,4.870229007633588,0.319580078125,-0.107666015625,-0.927001953125,0.9864360183775269,7.7384778472025,0.9678940491794341,7.762639987172034
2,-3.931297709923664,2.824427480916031,5.755725190839693,0.385498046875,-0.165771484375,-0.98779296875,1.0732305802055162,7.520695762459172,0.9897425810783073,5.546651495584085
2,-2.267175572519084,5.824427480916032,2.129770992366412,0.291748046875,-0.0576171875,-1.138427734375,1.1766283905910917,6.603026960190495,1.0416574200840818,6.2043484590744775
2,4.419847328244275,4.129770992366412,1.236641221374046,0.287353515625,-0.12353515625,-0.990234375,1.0384590002515264,6.174086196740421,1.0602795196363346,6.610134166285626
2,2.931297709923664,8.244274809160306,2.480916030534351,0.153564453125,0.00634765625,-0.985107421875,0.9970250581789094,9.09480718562638,1.054355809520914,7.4262187904437935
2,2.7022900763358777,4.732824427480916,-0.4732824427480916,0.271484375,-0.13037109375,-0.85693359375,0.9083146877883248,5.470465701257712,1.0387315434030735,6.972616361254836
2,3.0839694656488548,-1.106870229007634,-25.78625954198473,-0.086669921875,-0.5205078125,-1.021240234375,1.1495093190303673,25.993599414769715,1.053987291168044,10.667197091716945
2,-1.129770992366412,-0.6870229007633588,-41.34351145038168,-0.109375,-0.564697265625,-0.81689453125,0.9990808613998714,41.36465063323039,1.0184777853298,17.61952182632492
2,3.854961832061069,0.2442748091603053,-30.20610687022901,0.15283203125,-0.471435546875,-0.83935546875,0.974744431917343,30.45208191839655,1.0057348716629633,22.47512097065615
2,-0.3511450381679389,3.534351145038168,-2.4198473282442747,0.169189453125,-0.154541015625,-0.909912109375,0.9383219294817771,4.297743820456674,0.9939942459235368,21.515708297622208
2,2.992366412213741,5.763358778625954,1.3587786259541987,0.19140625,-0.055419921875,-1.04052734375,1.059436111037907,6.634518860509763,1.0242185305734532,21.748518929472617
2,-0.1832061068702289,4.870229007633588,0.7786259541984732,0.255615234375,-0.1025390625,-0.96728515625,1.0057305707218769,4.935479048779528,0.995462780911755,17.53689485627458
2,-0.7862595419847328,5.190839694656488,1.16793893129771,0.253173828125,-0.078369140625,-0.968994140625,1.0045836719832502,5.378392152885874,0.9965633430284309,10.339643160205679
2,-0.1984732824427481,4.061068702290076,2.557251908396946,0.39453125,-0.119873046875,-1.001708984375,1.0832568227208415,4.80324973029338,1.0182658211891304,5.209876722585044
2,-1.885496183206107,6.00763358778626,5.030534351145038,0.25048828125,-0.11669921875,-1.039794921875,1.0758887332143026,8.05934445473282,1.0457791819356355,5.962196849440273
2,-4.946564885496184,4.8320610687022905,3.030534351145038,0.396728515625,-0.136474609375,-1.03662109375,1.1183032353174702,7.549930913032402,1.0575526067915484,6.145279259944801
2,-1.274809160305344,10.24427480916031,3.458015267175572,0.291748046875,-0.133544921875,-0.937255859375,0.9906562042135237,10.887064542327938,1.0545377334898778,7.335596358654482
2,5.00763358778626,4.854961832061068,1.702290076335878,0.2666015625,-0.212646484375,-0.856201171875,0.9216156287545323,7.179473521386263,1.0379441248441341,7.69581263235456
2,5.572519083969466,1.946564885496183,-4.480916030534352,0.216064453125,-0.1708984375,-0.978759765625,1.0167894583690626,7.4108496319484445,1.0246506519737781,8.217332612685572
2,1.068702290076336,-1.5572519083969465,-36.08396946564886,-0.178466796875,-0.579345703125,-0.838623046875,1.034785222191606,36.13336422876923,1.016429949769239,13.832136567492853
2,1.030534351145038,0.2137404580152672,-36.04580152671755,-0.03662109375,-0.43408203125,-1.0322265625,1.1203838586360206,36.06116323325963,1.016846074432949,19.5343830315383
2,1.1145038167938932,2.1908396946564888,-23.290076335877856,-0.00439453125,-0.164306640625,-0.957275390625,0.9712837677808821,23.41942683022683,1.0129715871464207,22.04085548911808
2,-1.8167938931297711,7.396946564885495,2.320610687022901,0.221435546875,-0.01806640625,-1.089111328125,1.1115410840382023,7.9624614595368595,1.0509566782031547,22.197453076748197
2,-0.9465648854961832,4.557251908396948,0.8015267175572519,0.183349609375,-0.0615234375,-1.0146484375,1.0329151293020027,4.723026055189631,1.0541818123897428,21.659888361396433
2,-0.4961832061068702,3.908396946564885,0.8702290076335878,0.171875,-0.06982421875,-0.937744140625,0.9559186735416186,4.034732084248859,1.0384085026597452,15.24016193249236
2,0.0839694656488549,6.793893129770992,1.0,0.30859375,-0.113525390625,-0.991943359375,1.0450214089021248,6.867607642397084,1.023336012712966,9.401450814319853
2,0.6030534351145038,3.396946564885496,5.076335877862594,0.448486328125,-0.130615234375,-0.97900390625,1.084734517943741,6.137760614032269,1.0460261627455378,5.9451175710809405
2,-0.2519083969465649,3.206106870229008,2.045801526717557,0.423828125,-0.197265625,-0.96044921875,1.0681791554534013,3.8115460105450283,1.0373537770285777,5.114934481282574
2,-7.122137404580152,5.045801526717558,5.6030534351145045,0.293212890625,-0.02001953125,-0.936767578125,0.9817882033750028,10.372037507331594,1.0271283918431777,6.244736771710967
2,-2.6564885496183206,6.763358778625954,1.091603053435114,0.09033203125,0.0908203125,-0.947021484375,0.9556452777574831,7.347894297616078,1.0270737126863507,6.907369214384412
2,-1.251908396946565,-1.4274809160305342,1.4122137404580148,0.273681640625,-0.076904296875,-1.244140625,1.2762060202288736,2.3662890881536662,1.0733106349517005,6.007105503535727
2,5.389312977099237,-5.908396946564887,-27.41221374045801,-0.04736328125,-0.492431640625,-0.972900390625,1.0914519555059092,28.554917457346335,1.0746541224641342,10.49053687219854
2,12.77862595419847,-3.679389312977099,-43.11450381679389,-0.147216796875,-0.5390625,-0.935546875,1.089728920195592,45.11863945601751,1.0789640754125722,18.751955561293038
2,1.4122137404580148,3.259541984732825,-11.801526717557248,0.143798828125,-0.245849609375,-0.88330078125,0.9280842653319922,12.324568733395582,1.0682232878039701,19.142461806505832
2,-5.824427480916032,8.16030534351145,1.4656488549618318,0.139404296875,-0.225830078125,-0.954345703125,0.9905596919147818,10.132258649770165,1.0752061706354297,19.69933467693665
2,-0.7633587786259542,4.0381679389312986,0.900763358778626,0.1826171875,-0.07373046875,-0.99560546875,1.0148967773115707,4.207242749882173,1.0229443220519694,20.06752540928235
2,-0.5801526717557252,5.503816793893129,2.480916030534351,0.3369140625,-0.10009765625,-0.965576171875,1.0275543635203817,6.064941943155571,1.0101648036548636,15.569530306444202
2,0.6183206106870229,2.908396946564885,5.572519083969466,0.352294921875,-0.1181640625,-0.867431640625,0.9436694912959703,6.316174642740036,0.9809529178749393,7.809037343788705
2,-1.053435114503817,4.099236641221374,3.175572519083969,0.316650390625,-0.200439453125,-0.87158203125,0.948735306315671,5.291287877744214,0.985083126071675,6.402381172658432
2,-1.709923664122137,0.4274809160305343,0.1068702290076336,0.294677734375,-0.313720703125,-1.026123046875,1.112737234945277,1.7657859769924902,1.009518634677774,4.729086638102897
2,0.7022900763358778,9.80916030534351,2.061068702290076,0.3330078125,-0.12744140625,-0.998291015625,1.0600568225763214,10.047927221213655,1.0185506437307243,5.8972235323691935
2,-7.541984732824428,4.793893129770993,1.4503816793893132,0.237548828125,-0.08740234375,-1.06494140625,1.0946089777551988,9.053538096552666,1.0319615665776878,6.494942763048611
2,6.7251908396946565,-0.7633587786259542,-30.16030534351145,-0.0771484375,-0.563232421875,-0.834716796875,1.009918201363422,30.910433948248986,1.045211308591178,11.413794624150402
2,-1.1526717557251909,4.351145038167939,-40.6030534351145,-0.079833984375,-0.638427734375,-0.913818359375,1.1175989580396002,40.851793884410796,1.078984038935964,18.52589582548372
2,-1.938931297709924,2.801526717557252,-23.96946564885496,0.105712890625,-0.23681640625,-1.1123046875,1.1421378828092215,24.210396320962285,1.0848641685087528,23.014817894277677
2,0.2366412213740458,5.083969465648855,0.3053435114503817,0.20849609375,-0.052490234375,-1.074462890625,1.095762907359061,5.098625231892235,1.0920053854653005,22.024957496413393
2,4.145038167938932,0.7633587786259542,2.4885496183206106,0.1171875,-0.07373046875,-1.03271484375,1.0419544331111277,4.894582437902083,1.0814744765364863,21.193166364683275
2,-0.8320610687022901,3.969465648854962,0.6183206106870229,0.18896484375,-0.05859375,-0.989990234375,1.0095650567795975,4.102597169731622,1.0814038476197214,15.831599008979802
2,-0.8931297709923665,4.083969465648855,3.183206106870229,0.35302734375,-0.097900390625,-0.917236328125,0.9876918920148838,5.254454158426068,1.0554224344147782,8.712131063782858
2,-0.5190839694656488,3.106870229007634,3.541984732824428,0.292724609375,-0.064208984375,-0.90478515625,0.953124687319845,4.740015467781882,1.017619795316903,4.818054893146777
2,-3.0839694656488548,1.1984732824427482,4.1603053435114505,0.25244140625,-0.124755859375,-1.080078125,1.1161807399079182,5.315575831933311,1.0217033618266744,4.861445013154992
2,-10.73282442748092,8.992366412213743,1.4732824427480915,0.350341796875,-0.08984375,-1.00244140625,1.0656922853320014,14.079301653091704,1.026450932270849,6.698388856192915
2,0.6564885496183206,6.854961832061068,2.206106870229008,0.298828125,-0.134521484375,-1.158203125,1.2036730273663336,7.231070906696022,1.0652725263881964,7.324083603585796
2,2.519083969465649,4.885496183206106,-2.0229007633587788,0.15576171875,-0.17236328125,-0.921875,0.9506967599483133,5.857131080976229,1.0578734999748822,7.4446189880958284
2,-2.6564885496183206,5.961832061068701,-37.7175572519084,-0.13671875,-0.56494140625,-1.05419921875,1.203821748395667,38.27812035601576,1.1080129121900468,14.152239965742604
2,7.480916030534352,-1.885496183206107,-39.1297709923664,-0.05908203125,-0.41650390625,-0.914794921875,1.0068842731051182,39.883056282434396,1.0861536188294867,21.06573605584282
2,1.908396946564886,7.610687022900763,-8.755725190839694,0.332275390625,-0.180419921875,-0.890869140625,0.96778412321256,11.757008951417578,1.0665719864055985,20.601277515507995
2,1.793893129770992,2.160305343511451,0.5572519083969466,0.090087890625,-0.06103515625,-0.91552734375,0.921971493859574,2.8627786200919783,1.0102316797042465,19.727619058187187
2,-0.3664122137404579,4.396946564885496,-8.938931297709924,-0.08544921875,-0.114990234375,-1.00439453125,1.0145603468456226,9.968545016702016,1.0230043970837084,20.549901845332347
2,-0.3053435114503817,4.145038167938932,0.7328244274809159,0.19287109375,-0.06396484375,-0.99365234375,1.0142168112786099,4.220380043925916,0.985083409660297,13.738353782914377
2,-1.366412213740458,5.534351145038168,2.534351145038168,0.366943359375,-0.07958984375,-0.9453125,1.0171517560687833,6.238514299158146,0.9871369062530299,7.0094453862591255
2,-0.8244274809160306,1.954198473282443,1.7862595419847331,0.392333984375,-0.160400390625,-0.779296875,0.8871064535854651,2.772957896470931,0.971001372327611,5.212635175269796
2,-3.6488549618320607,7.152671755725192,4.3893129770992365,0.36669921875,-0.13671875,-1.052001953125,1.1224386143626017,9.151006730877599,1.0110947964282164,6.470280797426921
2,0.3587786259541985,10.3587786259542,4.106870229007634,0.246337890625,-0.091796875,-1.102294921875,1.133209211667798,11.148964068552575,1.0348245693926517,6.706364607797032
2,-3.267175572519084,9.557251908396944,0.9847328244274808,0.311279296875,-0.1376953125,-0.956298828125,1.0150676078078325,10.148162345849979,1.034994728698496,7.891921068181844
2,5.6259541984732815,-0.0534351145038167,-24.88549618320611,-0.005126953125,-0.54931640625,-0.7744140625,0.9494692938802787,25.513567689352016,1.0214582362607953,11.746931746220618
2,8.122137404580153,-0.6106870229007634,-37.755725190839705,-0.201416015625,-0.669189453125,-0.970458984375,1.1958986478285454,38.62430373929124,1.0832166751094112,18.91720091478468
2,3.1221374045801533,7.83206106870229,-32.40458015267176,-0.07958984375,-0.505859375,-0.977783203125,1.103760953656599,33.48351441273585,1.0794811429682107,23.78370245115633
2,-3.374045801526718,0.7328244274809159,-2.015267175572519,0.19677734375,-0.16162109375,-1.031494140625,1.0624607583821433,3.9978142154498433,1.0653314523110797,22.353472480535785
2,-3.4045801526717563,7.480916030534352,2.839694656488549,-0.05224609375,-0.073486328125,-0.856201171875,0.8609357359603284,8.6959264264345,1.034505077941579,22.06302529665269
2,7.541984732824428,-1.824427480916031,-24.167938931297712,0.002685546875,-0.420166015625,-1.1611328125,1.2348182461853914,25.383052250078478,1.0915748684026014,22.036922208797982
2,-0.4351145038167939,3.908396946564885,0.9465648854961832,0.225341796875,-0.0654296875,-0.917236328125,0.9467747625794818,4.044858020475361,1.0417500913527888,15.121033065034803
2,-1.297709923664122,4.015267175572519,0.4198473282442748,0.36279296875,-0.1376953125,-0.911865234375,0.9909979530355675,4.240600584379566,1.0191974912285824,9.272450299363548
2,0.3816793893129771,3.969465648854962,3.778625954198473,0.401611328125,-0.083251953125,-0.85302734375,0.946508423503264,5.493664605289277,0.9960070242528065,9.571620377331435
2,3.595419847328244,1.038167938931298,1.740458015267176,0.1064453125,-0.142822265625,-1.0068359375,1.0224712265648284,4.127230385003298,1.0283141223737065,8.657881169045194
2,-5.183206106870228,-1.4656488549618318,5.824427480916032,0.273193359375,-0.116943359375,-0.850830078125,0.901233700407781,7.933328909908982,0.9615972132181845,5.167936501011296
2,4.5114503816793885,6.8320610687022905,-22.6412213740458,0.052001953125,-0.50927734375,-1.2919921875,1.389716312254737,24.07602849934725,1.0501855231532355,9.174170596785673
2,10.64885496183206,-7.160305343511451,-44.89312977099237,-0.188720703125,-0.663330078125,-1.0859375,1.2864223840712516,46.69112533710892,1.1092704093603722,17.664275547331545
2,4.442748091603052,3.618320610687023,-9.748091603053435,0.32958984375,-0.235107421875,-1.078369140625,1.1518615230904103,11.30732260743833,1.1503410292778018,18.827007147761357
2,2.33587786259542,10.42748091603053,-0.7251908396946565,0.037353515625,-0.204345703125,-0.92431640625,0.9473717698866231,10.710489503151631,1.1353211379421606,20.14365897139102
2,0.8320610687022901,2.427480916030534,-8.305343511450381,-0.072265625,-0.153564453125,-1.036376953125,1.0501816751347737,8.692739502765132,1.1651107328875592,20.29554108996225
2,4.3893129770992365,-0.8854961832061069,-24.30534351145038,-0.035400390625,-0.326904296875,-0.995849609375,1.0487306858598544,24.714366168506277,1.0969136076085826,20.423208623794057
2,2.6564885496183206,-2.442748091603054,-27.618320610687014,0.00634765625,-0.343017578125,-0.899658203125,0.9628531736940541,27.853107241526622,1.032199765533143,16.655605004677597
2,-0.4122137404580153,4.519083969465648,0.8320610687022901,0.19189453125,-0.07666015625,-0.99853515625,1.0196924776358525,4.613498207754478,1.0057659564422314,15.316840124740827
2,-5.251908396946566,9.442748091603056,0.0687022900763358,0.450439453125,-0.080322265625,-0.84619140625,0.9619705106176772,10.805218800933776,1.0086857045884423,15.335785984297257
2,-5.0,8.778625954198473,8.793893129770991,0.340087890625,-0.052734375,-0.994140625,1.052024842830146,13.393910184168046,1.0090543381275168,16.27602012057784
2,-1.717557251908397,3.458015267175572,0.4580152671755725,0.39501953125,-0.10546875,-1.0693359375,1.1448333653962641,3.8881422924795817,1.0282748740347987,12.110775345372499
2,8.664122137404581,10.43511450381679,5.923664122137405,0.38427734375,0.06103515625,-1.14599609375,1.2102484927105988,14.80028458346425,1.0777539378381078,9.500210813760024
2,-1.022900763358779,-1.7557251908396951,-17.09160305343512,-0.02490234375,-0.3974609375,-0.7998046875,0.8934667658674242,17.21196653069084,1.052508795484422,12.019904478347296
2,-11.6030534351145,0.8625954198473282,-50.25954198473283,-0.252685546875,-0.74365234375,-0.886474609375,1.1843589097190703,51.588724353211,1.0969864753047007,20.176605588802744
2,-2.618320610687023,1.969465648854962,-11.79389312977099,0.211181640625,-0.090576171875,-1.065673828125,1.0901662424599232,12.2405193075632,1.104614755230656,19.945927413481776
2,2.7557251908396947,4.916030534351145,-1.297709923664122,0.279296875,-0.142333984375,-1.169921875,1.2111906955951832,5.783202277983852,1.1178862212704401,20.324939410582626
2,-1.954198473282443,3.435114503816794,-0.8854961832061069,0.0517578125,-0.001708984375,-0.99072265625,0.9920751853511077,4.050062569613526,1.0742515597985418,18.174895007812484
2,1.3206106870229009,1.16030534351145,-14.41984732824428,0.00439453125,-0.118408203125,-0.98828125,0.9953590525904514,14.526607244870842,1.0946300171431473,17.637823150648483
2,1.4122137404580148,0.0381679389312977,-24.152671755725198,-0.014892578125,-0.272705078125,-0.9716796875,1.009332087877161,24.193952909355396,1.0596246527747653,12.158868861877362
2,-0.8091603053435115,4.175572519083969,0.7328244274809159,0.165771484375,-0.074462890625,-0.996337890625,1.0127754437224454,4.315921443143467,1.0441464930272697,10.573949288993415
2,-2.0229007633587788,5.015267175572519,5.854961832061068,0.3515625,-0.12548828125,-0.978515625,1.047299540965463,7.9702955024054525,1.0113682621013258,11.011367933877738
2,-5.496183206106871,0.0305343511450381,4.137404580152672,0.358154296875,-0.09716796875,-0.905029296875,0.9781585468231024,6.8794679184919065,1.0085849343957247,11.577249003653412
2,-1.5343511450381682,9.580152671755725,6.160305343511451,0.368408203125,-0.135498046875,-0.992431640625,1.0672417187077912,11.49273338139035,1.0229614676191925,10.970474230957313
2,0.3206106870229007,2.106870229007634,1.908396946564886,0.095703125,-0.047119140625,-1.102783203125,1.1079305459471,2.8607118485038225,1.0426811592331806,6.703826018787
2,-0.0534351145038167,7.984732824427482,2.908396946564885,0.39501953125,-0.075439453125,-0.884765625,0.9718753790164711,8.498093103028447,1.0345011462919858,7.540260350763996
2,3.8091603053435112,6.977099236641222,-1.984732824427481,0.198486328125,-0.123046875,-0.9091796875,0.9386932726201932,8.19321550882827,1.0127798926229317,7.584844352048559
2,5.8320610687022905,3.679389312977099,-30.75572519083969,-0.02001953125,-0.446533203125,-1.001708984375,1.0969109227745597,31.51928733394799,1.0365303678132232,12.512808235139776
2,3.717557251908397,-2.16793893129771,-40.89312977099237,-0.09765625,-0.533447265625,-0.96044921875,1.102980249217699,41.118952486636566,1.0436780739152047,18.43805205618902
2,-1.580152671755725,0.0534351145038167,-24.519083969465647,0.088134765625,-0.40576171875,-1.033203125,1.1135165049627658,24.570006440357847,1.0447952657183377,22.779910974559822
2,1.893129770992366,5.557251908396948,-0.1450381679389313,0.317626953125,0.02880859375,-1.03662109375,1.0845736989401733,5.872650608827176,1.0673349297030783,22.25482247571957
2,-0.6564885496183206,5.5954198473282455,5.290076335877862,0.0947265625,-0.052978515625,-1.091796875,1.09717831778643,7.728169778354365,1.0990319387363257,22.16181332962479
2,-0.3893129770992366,4.343511450381679,0.7862595419847328,0.20068359375,-0.09326171875,-1.031494140625,1.054965314656518,4.431236890654422,1.0906428171127174,16.74420324096608
2,0.5190839694656488,3.877862595419847,3.671755725190839,0.3515625,-0.115478515625,-0.986083984375,1.0532298434900516,5.365543456331732,1.0806927359671878,9.59352143490511
2,-3.2442748091603053,4.778625954198472,3.557251908396946,0.3271484375,-0.102783203125,-0.963134765625,1.0223595569851391,6.783408154260298,1.0624613463716623,6.0362017776856005
2,1.6793893129770991,4.251908396946565,0.4198473282442748,0.3154296875,-0.12744140625,-1.217041015625,1.263695387938429,4.590789176122146,1.0982856841713136,5.779829491144595
2,-5.30534351145038,7.366412213740458,2.5801526717557253,0.345458984375,-0.047607421875,-1.11865234375,1.1717471752389075,9.437578422815964,1.113199455661809,6.1217112200369135
2,-4.412213740458014,11.99236641221374,5.809160305343513,0.200439453125,0.002197265625,-1.01953125,1.0390499372368194,14.03676692509559,1.1100163801778693,8.042817226925148
2,-2.4122137404580157,7.106870229007634,0.5419847328244275,0.074462890625,-0.1474609375,-0.862060546875,0.8777458838678959,7.524634677658726,1.0749195882534381,8.474635471190547
2,3.015267175572519,-9.282442748091604,-24.68702290076336,-0.098876953125,-0.529052734375,-0.802490234375,0.9662629165378284,26.54627430006889,1.063700260163976,12.427208700352264
2,9.229007633587788,-6.9312977099236655,-45.94656488549618,-0.12841796875,-0.79345703125,-1.021240234375,1.2996141163607928,47.374088852679,1.0708840058484488,20.983868635663633
2,3.946564885496183,-1.610687022900763,-38.755725190839705,-0.1220703125,-0.634033203125,-1.15771484375,1.3255953090207744,38.98943346791614,1.101653632604822,26.894239644683672
2,5.496183206106871,6.183206106870228,-6.374045801526719,0.27294921875,0.045654296875,-0.97705078125,1.015486986613133,10.443587864095791,1.096941042480085,26.17560383248371
2,-2.5877862595419847,3.931297709923664,3.595419847328244,0.1845703125,-0.0322265625,-0.96044921875,0.9785537560013754,5.922734443454915,1.1171026169067808,25.85522378564295
2,-0.3053435114503817,6.206106870229008,0.4274809160305343,0.338134765625,-0.073486328125,-0.9482421875,1.0094050754282713,6.228301299572689,1.1257310486848693,21.791629185543712
2,-2.3587786259541983,0.8854961832061069,3.564885496183206,0.27099609375,-0.078125,-0.925048828125,0.9670872416013948,4.365357797206128,1.05922567373299,13.189882974449134
2,-5.122137404580153,5.091603053435113,4.221374045801527,0.388671875,-0.139892578125,-0.998291015625,1.0803798923101395,8.365447512220468,1.0101825903908628,7.065085783309999
2,-3.946564885496183,2.137404580152672,3.870229007633588,0.21875,-0.001220703125,-0.964599609375,0.9890932509235527,5.926427701931205,1.0049038432529467,6.1616537508770834
2,-6.900763358778626,5.030534351145038,0.2137404580152672,0.210205078125,-0.09423828125,-1.02587890625,1.0514250134038032,8.542394030674567,1.0194780947334323,6.685585668321013
2,-3.1297709923664123,3.717557251908397,0.1908396946564886,0.355712890625,-0.221923828125,-1.0751953125,1.1540480085630842,4.863344340567664,1.048406681360395,6.412594276520008
2,0.7709923664122137,5.694656488549619,-7.473282442748093,0.056396484375,-0.353515625,-1.066162109375,1.1246579497944917,9.427273848824647,1.0799208229990143,7.424977486843711
2,5.641221374045801,3.6488549618320607,-28.381679389312986,-0.170654296875,-0.3349609375,-0.89208984375,0.9680630186174239,29.166028973468965,1.0574574482604713,11.58509377909341
2,7.5114503816793885,-1.33587786259542,-42.93893129770992,-0.08740234375,-0.501220703125,-1.005126953125,1.1265618291210024,43.61144663376413,1.0849511638999612,19.122097565459995
2,7.053435114503817,2.854961832061069,-25.59541984732824,0.064208984375,-0.426513671875,-0.8203125,0.9267951788971575,26.702570496827555,1.0600251969986318,22.754132858690593
2,-3.5267175572519083,3.259541984732825,3.259541984732825,0.187744140625,0.06640625,-0.99267578125,1.0124538799660852,5.804047262824525,1.0317063712792323,22.942273443141964
2,4.450381679389314,1.267175572519084,1.656488549618321,0.103515625,-0.130859375,-0.880126953125,0.895803055510321,4.9148331954248174,0.9859353924223979,22.039785312462
2,-0.0534351145038167,6.8473282442748085,3.4198473282442747,0.365966796875,-0.085693359375,-0.949462890625,1.021153675471964,7.654026074217742,0.9965535237933061,17.737384732611755
2,-1.6183206106870232,5.206106870229007,1.709923664122137,0.282958984375,-0.067138671875,-0.908447265625,0.9538604837821985,5.713698388989829,0.9620132547255451,10.157835083656895
2,-7.366412213740458,6.2595419847328255,2.381679389312977,0.278564453125,-0.168701171875,-1.038818359375,1.088669749607931,9.955816966721304,0.9943881688676999,6.808484377635645
2,0.5725190839694656,-1.4656488549618318,2.206106870229008,0.1103515625,-0.056396484375,-1.0126953125,1.0202498844672925,2.7097623863416134,0.9959473697679414,6.189627402339062
2,-1.4427480916030535,8.442748091603054,3.717557251908397,0.252197265625,-0.0234375,-0.999267578125,1.0308678236741993,9.33711675600707,1.022960323400717,7.0740841144555136
2,-3.946564885496183,7.694656488549619,0.3053435114503817,0.224853515625,0.027587890625,-0.94189453125,0.9687546145421535,8.653112014309944,1.012480511214755,7.273901302473954
2,-1.1450381679389308,5.282442748091603,-21.44274809160305,0.020751953125,-0.461669921875,-0.913818359375,1.024028199930738,22.113497224836436,1.0265140544444629,10.553861069643276
2,6.687022900763358,5.740458015267175,-42.09160305343512,-0.092529296875,-0.614013671875,-1.12890625,1.2884113401079116,43.00432746955041,1.066462372544459,17.163563170209095
2,6.3816793893129775,-2.2290076335877864,-41.62595419847328,-0.10791015625,-0.571533203125,-0.947021484375,1.1113705484508982,42.1712505125467,1.08468650534118,25.05586079545011
2,1.221374045801527,-3.091603053435115,-16.66412213740458,-0.0263671875,-0.119873046875,-0.9580078125,0.9658383636793432,16.992431568498496,1.071680613342209,26.586923757948398
2,-3.282442748091603,2.068702290076336,2.725190839694656,0.341552734375,-0.072998046875,-0.951904296875,1.0139569890363656,4.741373711512508,1.0807210882410512,25.80457609738891
2,-3.7633587786259537,0.5877862595419847,3.732824427480916,0.1162109375,-0.084228515625,-1.043212890625,1.0530396763679837,5.3331360558273415,1.0865233835285004,22.448503863587092
2,0.2900763358778626,5.045801526717558,1.969465648854962,0.3564453125,-0.107666015625,-1.001220703125,1.068217266332044,5.424302007602569,1.0424845687733268,14.932498771197524
2,-3.595419847328244,4.251908396946565,3.816793893129771,0.374267578125,-0.064208984375,-0.90478515625,0.981241658655175,6.750828431919987,1.0164587908141822,7.84841435507218
2,3.274809160305344,3.755725190839695,2.030534351145038,0.276611328125,-0.1025390625,-1.04541015625,1.0862368438679038,5.380791437763375,1.0405384868518943,5.526086328925156
2,-4.0458015267175576,3.969465648854962,3.1908396946564888,0.27978515625,-0.009033203125,-0.989013671875,1.0278664191285776,6.504354348282785,1.0433203728703366,5.878682456279211
2,0.5114503816793893,7.763358778625954,3.732824427480916,0.2802734375,-0.147216796875,-0.99169921875,1.041005920021381,8.6293278547629,1.0409136216010162,6.537920816066324
2,3.0763358778625958,0.4045801526717557,1.923664122137405,0.289794921875,-0.22509765625,-1.066650390625,1.1280040369671758,3.650754879221447,1.0528709757280426,6.183211390390099
2,0.3740458015267176,7.083969465648855,0.8931297709923665,0.21240234375,-0.0849609375,-1.0302734375,1.0553655634657777,7.149840168823213,1.067695756690163,6.263013737770744
2,4.396946564885496,2.374045801526718,-12.51145038167939,0.0703125,-0.507080078125,-1.05029296875,1.1684131861174774,13.472402280789806,1.084131025140078,7.881335906376032
2,3.931297709923664,-0.2061068702290076,-42.55725190839696,-0.137939453125,-0.7822265625,-0.93896484375,1.2298620514543297,42.7389432686486,1.1245301516052284,15.128253690449194
2,-1.931297709923664,1.5954198473282442,-42.45801526717558,-0.0908203125,-0.4208984375,-1.055908203125,1.1403271273100564,42.531850838651735,1.1443943930629632,21.90875828722696
2,-5.870229007633588,3.007633587786259,-17.16793893129771,0.13330078125,-0.254638671875,-0.87353515625,0.9196051439073382,18.391399499472854,1.1027146144509958,24.856887211277243
2,-5.465648854961832,-1.175572519083969,2.175572519083969,0.215576171875,-0.0771484375,-1.30615234375,1.3260689696892047,5.9990335837670035,1.156855295695681,24.626725894266
2,-0.7251908396946565,4.534351145038168,1.122137404580153,0.3291015625,-0.119140625,-0.974853515625,1.0357807219154807,4.727095769628946,1.1303288028552818,22.877664592033828
2,-0.5801526717557252,3.015267175572519,1.7557251908396951,0.3818359375,-0.103759765625,-0.9833984375,1.0600175748573701,3.5370869664710627,1.09635990753589,15.03729333159832
2,-0.2290076335877863,3.3053435114503817,1.961832061068702,0.314697265625,-0.07666015625,-0.97802734375,1.030266292601484,3.850522725652413,1.0743477405941755,7.301027708998456
2,-3.709923664122138,9.435114503816791,4.221374045801527,0.311767578125,-0.03759765625,-0.89111328125,0.9448256381711722,10.98202705006294,1.0793918394469424,5.819153219116473
2,-0.2366412213740458,0.1908396946564886,1.923664122137405,0.225830078125,-0.081298828125,-0.8974609375,0.9290020764125454,1.9475375507313473,0.9999784607916103,5.0088540125093415
2,-0.1755725190839695,5.015267175572519,-0.7480916030534351,0.135986328125,-0.045654296875,-0.9697265625,0.9802786350207461,5.073792624693258,0.9888780434126636,5.078193383522204
2,5.763358778625954,7.847328244274808,1.862595419847328,0.279296875,-0.0771484375,-1.1787109375,1.2138031553656408,9.912927250948341,1.0196351595143178,6.35336144041766
2,-1.213740458015267,10.77862595419847,-2.458015267175572,0.412353515625,-0.2216796875,-0.960693359375,1.0686950156361812,11.121770651007518,1.027320904121257,7.807611025488681
2,5.954198473282442,-3.877862595419847,-28.06106870229008,-0.160400390625,-0.594970703125,-0.743896484375,0.9659712223224841,28.946742035725524,1.0315500209515196,11.400554022621197
2,4.015267175572519,-5.541984732824427,-39.3206106870229,-0.097412109375,-0.578857421875,-0.877197265625,1.0554809693844014,39.91173248645702,1.0568457995458906,18.993393009766333
2,3.4198473282442747,-2.786259541984733,-38.68702290076336,-0.110595703125,-0.59423828125,-1.040771484375,1.2035596483518414,38.93769817166892,1.1015020022121098,25.766174119161462
2,-1.656488549618321,-5.67175572519084,-14.41984732824428,0.135986328125,-0.190185546875,-0.8740234375,0.9047539958333312,15.583477284968378,1.0396921703056479,26.90028412596547
2,-0.8702290076335878,5.145038167938932,1.694656488549618,0.37841796875,-0.10302734375,-1.010986328125,1.0843929860934765,5.486399264495673,1.042831764397107,25.7732098486631
2,0.6717557251908397,2.7557251908396947,4.66412213740458,0.353759765625,-0.083251953125,-0.97119140625,1.036961719181588,5.458874645417553,1.057029863768928,21.075636370601508
2,-3.534351145038168,3.9236641221374047,2.4656488549618323,0.422607421875,-0.087890625,-1.06982421875,1.1536228387175649,5.828053057047053,1.0766582376355605,14.258900484719515
2,-3.7480916030534353,3.7633587786259537,2.961832061068702,0.3046875,-0.0947265625,-1.01171875,1.0608404325820537,6.08140683719772,1.048114394481603,7.6876422178252755
2,-3.2442748091603053,-5.183206106870228,1.6183206106870232,0.155029296875,0.04931640625,-0.854736328125,0.8700806752431521,6.3253384243551265,1.041179730363567,5.8360144457026255
2,3.16793893129771,0.8625954198473282,0.4580152671755725,0.176025390625,-0.073974609375,-0.91748046875,0.9371379789095027,3.31506951899039,1.0117287289267722,5.401748496601568
2,1.4274809160305342,-0.4198473282442748,-0.1374045801526718,0.171875,-0.105712890625,-0.890869140625,0.9134353050912907,1.4942735905155258,0.9870234461087127,4.608828285621163
2,2.198473282442748,7.351145038167938,-1.259541984732824,0.3388671875,-0.21337890625,-1.094970703125,1.165899810918015,7.775542692127694,0.9894788405488029,4.998326212637291
2,2.854961832061069,-3.755725190839695,-25.83969465648855,-0.06689453125,-0.48583984375,-0.95068359375,1.0697263797399765,26.26682505961077,0.9912560299803875,9.035409857119902
2,1.4274809160305342,-1.053435114503817,-41.244274809160295,-0.0498046875,-0.547119140625,-0.987060546875,1.1296496731873937,41.28241310582069,1.0431698295692358,16.026824793413017
2,6.549618320610688,1.977099236641221,-38.69465648854962,0.01220703125,-0.609375,-1.01904296875,1.1874070382121507,39.29481978968808,1.0932236414297651,23.22277484755255
2,3.847328244274809,3.839694656488549,-17.80916030534351,0.22021484375,-0.400146484375,-0.917724609375,1.0251001146317396,18.620187444160823,1.115556603337855,26.647957618281612
2,-1.396946564885496,2.068702290076336,3.0687022900763363,0.345703125,-0.11767578125,-0.955810546875,1.0231969710886806,3.955745519523749,1.0870160353719882,25.88399818376082
2,1.015267175572519,4.2824427480916025,4.717557251908397,0.388427734375,-0.105712890625,-0.917724609375,1.002132615340148,6.451777255416593,1.0734972824920224,21.920988622921985
2,-1.175572519083969,4.534351145038168,2.351145038167939,0.16845703125,-0.022216796875,-1.007080078125,1.0213136840350296,5.241201584048842,1.0518300846615496,14.71274631856762
2,1.4732824427480915,6.137404580152673,3.7480916030534353,0.295166015625,-0.1640625,-0.94873046875,1.0070397127327118,7.340741570268528,1.015756619565662,8.321930674683708
2,3.0763358778625958,-4.190839694656488,-0.0229007633587786,0.197998046875,-0.166259765625,-0.77490234375,0.8168960635118998,5.198798344299914,0.9741158093416938,5.637652854711525
2,-2.213740458015267,-0.7328244274809159,0.6870229007633588,0.185302734375,-0.080322265625,-1.055908203125,1.075049256149992,2.430983118645557,0.9844862663539562,5.332700374535887
2,-2.984732824427481,11.61068702290076,1.610687022900763,0.36865234375,-0.001953125,-1.004638671875,1.0701435540507627,12.09590822810391,0.998088454096079,6.461526569073351
2,-7.801526717557253,4.610687022900763,-0.6946564885496184,0.123779296875,0.058837890625,-0.9208984375,0.93104089270988,9.088718368669436,0.9800338958310493,7.23102992599747
2,-1.190839694656489,3.282442748091603,-15.916030534351153,0.17529296875,-0.4609375,-0.928466796875,1.0513047116315806,16.294556070763846,0.988886895610823,9.021792826096533
2,5.977099236641222,-7.694656488549619,-37.56488549618321,-0.052001953125,-0.50537109375,-0.898193359375,1.0319183380249786,38.80791254503122,1.0318913505134388,15.743615666242794
2,3.893129770992366,0.648854961832061,-41.389312977099245,-0.015380859375,-0.55810546875,-1.228759765625,1.3496550843465807,41.577069412015526,1.0868125161527566,23.57283292491679
2,-7.480916030534352,7.67175572519084,-25.99236641221374,0.2880859375,-0.149658203125,-0.9306640625,0.985660531002871,28.114463399995405,1.0699159115431782,26.77654395929509
2,-1.3511450381679388,4.572519083969466,2.0839694656488548,0.378173828125,-0.106201171875,-0.958251953125,1.0356355241368547,5.203503860014671,1.090834837828573,25.999501057564135
2,-0.8320610687022901,2.83206106870229,5.290076335877862,0.393798828125,-0.07421875,-0.986083984375,1.0644000958873787,6.0578711737972855,1.0934539146797326,23.952164078170824
2,-4.114503816793893,1.083969465648855,3.5267175572519083,0.277587890625,-0.10009765625,-0.94970703125,0.9944938526778678,5.526469776403327,1.0859690176103105,17.295875524445243
2,-4.0458015267175576,3.6870229007633593,3.847328244274809,0.346923828125,-0.15185546875,-0.991455078125,1.061319649233932,6.690633937343924,1.0283019305877807,10.318588429510921
2,-0.0381679389312977,-0.7251908396946565,1.6412213740458013,0.1796875,-0.181640625,-0.909912109375,0.9451036774311602,1.7947050298486635,1.0201905598734387,5.0546367554815745
2,-0.6335877862595419,1.076335877862595,0.2824427480916031,0.26611328125,-0.052734375,-0.9013671875,0.9413076008754749,1.2805101759927748,1.0013249752211628,4.270038018677195
2,6.923664122137405,8.816793893129773,2.549618320610687,0.212646484375,-0.021728515625,-1.367919921875,1.3845199775990302,11.496674867582229,1.065348951563493,5.357798757434184
2,-3.656488549618321,7.702290076335879,1.5877862595419852,0.03564453125,-0.11376953125,-0.80029296875,0.8091247584146498,8.672730028053588,1.0282751327108495,5.987050807764236
2,4.32824427480916,3.175572519083969,-19.519083969465647,0.117919921875,-0.373046875,-0.707763671875,0.808701733736397,20.243828648094965,0.9777515496113424,8.697689749914444
2,6.2595419847328255,-3.793893129770992,-34.25954198473283,0.0048828125,-0.564697265625,-0.853515625,1.0234235515080756,35.03272338746201,0.9934155244267255,15.345293421437114
2,-0.9389312977099236,-2.885496183206107,-39.45038167938932,-0.120849609375,-0.461669921875,-1.106201171875,1.2047509192807375,39.56690908896742,1.0461041881077782,23.002573204032043
2,-1.374045801526718,1.900763358778626,-24.053435114503824,-0.090087890625,-0.244140625,-0.9248046875,0.9607206580659257,24.16751216030343,0.9613443242011572,25.536740662576285
2,-0.5496183206106869,3.2366412213740463,2.66412213740458,0.33935546875,-0.12646484375,-0.9130859375,0.9822837778032874,4.227939623180272,0.9959761280788847,24.64778258160162
2,-0.3969465648854962,6.427480916030534,2.458015267175572,0.39013671875,-0.133544921875,-1.023193359375,1.1031616183246742,6.892888839592534,1.05486810499654,21.977594619901133
2,0.7404580152671756,3.916030534351145,2.839694656488549,0.473388671875,-0.200927734375,-1.1171875,1.2298685699118004,4.893612056593119,1.096157108677285,15.949772353727354
2,-2.007633587786259,5.122137404580153,1.885496183206107,0.275146484375,-0.1240234375,-0.95751953125,1.0039576951438034,5.815666777858875,1.0559984638498983,9.199523891505645
2,0.9389312977099236,0.7404580152671756,1.267175572519084,0.174072265625,-0.154296875,-0.978515625,1.0057840263514464,1.7422984778107669,1.0650111375070024,4.714481155007113
2,0.8244274809160306,7.244274809160307,1.656488549618321,0.209716796875,-0.027099609375,-0.960693359375,0.9836906294496306,7.476841077416368,1.065292507836271,5.364261445854332
2,0.0305343511450381,3.3282442748091614,0.6030534351145038,0.133056640625,-0.09521484375,-0.84912109375,0.864740751864941,3.3825753125397244,1.0176083345443243,4.66219874044377
2,-1.763358778625954,2.7480916030534357,1.610687022900763,0.21484375,-0.126220703125,-1.233154296875,1.2580775106139954,3.6408452763981805,1.0232501226847635,4.411645384404783
2,-1.16030534351145,5.106870229007634,-19.7175572519084,-0.0400390625,-0.283447265625,-0.974365234375,1.0155457098894254,20.401188593030337,1.0255677256338878,7.328749747439076
2,6.442748091603052,-3.816793893129771,-34.09160305343512,-0.1064453125,-0.34326171875,-0.90380859375,0.972640316997388,34.90435957509426,1.018938983763076,13.961161966895776
2,0.4580152671755725,-0.931297709923664,-29.53435114503817,0.177490234375,-0.33251953125,-0.99169921875,1.0609143992003183,29.552580106784117,1.0343837377132137,18.376309772769325
2,-0.8854961832061069,6.702290076335879,-14.15267175572519,0.159912109375,-0.2578125,-0.9921875,1.0375332298472477,15.684480022720694,1.068942233309675,20.836690714805517
2,-0.9694656488549618,5.801526717557253,0.6870229007633588,0.331298828125,-0.112060546875,-1.0126953125,1.0713861468408088,5.921957139748117,1.0316039605550376,21.292913087475505
2,0.8091603053435115,5.748091603053435,2.549618320610687,0.3291015625,-0.084716796875,-0.997802734375,1.0540849447928418,6.340019799466771,1.0393118075357208,18.480679328762793
2,-1.748091603053435,3.229007633587786,2.3587786259541983,0.374267578125,-0.0673828125,-0.9765625,1.0479937880837906,4.364189633447714,1.0543825017530015,12.372645340433483
2,-2.717557251908397,1.854961832061069,1.8167938931297711,0.228759765625,-0.135986328125,-1.054443359375,1.0875082114337162,3.7585556888141096,1.059701264199681,7.213840456839483
2,-0.8625954198473282,2.3969465648854964,0.1297709923664122,0.284912109375,-0.099853515625,-0.9404296875,0.9877011854718671,2.5507379723753933,1.0497348553246049,4.587092046770422
2,4.786259541984733,4.854961832061068,1.923664122137405,0.40478515625,-0.19384765625,-1.077392578125,1.1671343984103928,7.08374325119201,1.0688845056385219,4.819449269059201
2,-5.519083969465648,5.496183206106871,0.8854961832061069,0.218505859375,-0.061767578125,-0.854736328125,0.8843835338275148,7.839159469456945,1.0349442234454562,5.119277203057235
2,-3.473282442748092,-1.6412213740458013,-1.076335877862595,0.0966796875,-0.098876953125,-0.91943359375,0.9297751056843914,3.9894607966116404,1.0113004869655764,5.044331435690021
2,-5.839694656488549,-7.687022900763358,-14.198473282442752,-0.13037109375,-0.442138671875,-0.9931640625,1.0949237792168294,17.169420441882185,1.012783600522199,7.7265043863036365
2,2.3587786259541983,-5.152671755725192,-24.88549618320611,-0.130126953125,-0.309814453125,-0.958740234375,1.0159236468869934,25.52257399074146,1.0184280928052245,12.32087158997685
2,-2.068702290076336,5.809160305343513,-26.02290076335878,-0.036376953125,-0.2255859375,-0.94091796875,0.9682659354914012,26.743545702800233,0.978654400221426,16.252832080298493
2,3.0992366412213737,-2.183206106870229,-24.79389312977099,0.08203125,-0.382568359375,-0.97705078125,1.0524808334182039,25.082041248548126,1.0122738601395638,19.70140843611673
2,-1.259541984732824,4.488549618320612,0.9465648854961832,0.246337890625,-0.0791015625,-1.000732421875,1.0336366836269497,4.757048325367866,1.0330461757280756,19.854925941867975
2,-1.16793893129771,4.419847328244275,0.9541984732824428,0.367919921875,-0.122802734375,-0.93505859375,1.0123142566556151,4.670077780791605,1.0165242712158327,17.35505740964986
2,-2.801526717557252,5.045801526717558,1.748091603053435,0.430419921875,-0.15087890625,-0.9453125,1.049591099502243,6.030297608649036,1.0232577617388827,13.456602133231375
2,1.793893129770992,4.572519083969466,0.015267175572519,0.2939453125,-0.11181640625,-0.90380859375,0.9569622404169039,4.911844502929067,1.020997022723983,9.090261893257141
2,-0.5877862595419847,4.480916030534352,1.5648854961832062,0.374267578125,-0.1787109375,-0.9150390625,1.0046443674846144,4.782569160584157,1.0114297295372652,5.030367475664347
2,-4.885496183206106,7.419847328244275,0.9770992366412212,0.274169921875,-0.048095703125,-1.013671875,1.051195991661901,8.937389453795777,1.0149415911442552,5.86643570134993
2,2.816793893129771,2.66412213740458,1.633587786259542,0.363037109375,-0.19775390625,-0.982177734375,1.0656339203133962,4.207194273479497,1.0256055238758115,5.7738589998875085
2,-1.053435114503817,4.732824427480916,1.053435114503817,0.143310546875,-0.010009765625,-0.93798828125,0.9489257737124691,4.961761596681102,1.005472458717857,5.560151797493921
2,-2.977099236641221,3.6488549618320607,1.190839694656489,0.2001953125,-0.083984375,-0.88232421875,0.9086405039309612,4.857505694867043,0.9958081114206685,5.5492840358815165
2,5.893129770992366,1.610687022900763,-10.40458015267176,0.112548828125,-0.216796875,-0.88916015625,0.922102980791517,12.06559486046455,0.9792998340820489,7.005889175857595
2,5.877862595419848,0.0458015267175572,-28.01526717557252,0.115234375,-0.59326171875,-1.011962890625,1.1786888139445246,28.625278363523325,1.0047983985385736,10.943466957803105
2,2.160305343511451,-2.267175572519084,-33.045801526717554,0.08154296875,-0.509033203125,-0.9814453125,1.1086022546722893,33.19385489510129,1.0133920654103523,16.740799082127463
2,0.3206106870229007,5.687022900763358,0.5190839694656488,0.32080078125,-0.116455078125,-0.939453125,0.999523436715706,5.71965635801631,1.0235115980109994,16.892378034394504
2,-0.6946564885496184,4.549618320610686,0.1832061068702289,0.341552734375,-0.131591796875,-1.0185546875,1.082325423702157,4.605989467846733,1.0582485819652387,16.842074788990445
2,-2.33587786259542,4.496183206106871,-0.4045801526717557,0.2734375,-0.081787109375,-0.96142578125,1.002894177128545,5.082880473882572,1.0744068212326443,15.445531911674047
2,-4.427480916030534,4.961832061068702,0.5648854961832062,0.318359375,-0.100341796875,-0.915771484375,0.9747094846388258,6.673938888532169,1.0336109553715045,11.055264016675816
2,-6.816793893129772,4.923664122137406,0.3282442748091603,0.152587890625,-0.105224609375,-1.056640625,1.072774297410177,8.415396109095488,1.0264453639190823,6.099572259474655
2,-4.305343511450381,0.6641221374045801,1.038167938931298,0.1708984375,-0.017822265625,-1.03564453125,1.0498016499320153,4.478262345419659,1.0365010065623441,5.851293456955326
2,-1.419847328244275,3.977099236641221,0.3816793893129771,0.230224609375,-0.13037109375,-0.872802734375,0.9120222617786912,4.240160837732563,1.0024403741776509,5.778127730932492
2,-9.33587786259542,6.839694656488549,-0.2290076335877863,0.18408203125,-0.071044921875,-1.0810546875,1.0989143790664828,11.575512211368391,1.0216444145652386,7.076654078429655
2,-0.7938931297709924,7.106870229007634,-22.84732824427481,-0.055908203125,-0.2587890625,-0.9462890625,0.9826293786842647,23.940306569780805,1.0232283933743263,10.529927614679384
2,2.351145038167939,0.4198473282442748,-28.038167938931306,0.0751953125,-0.424560546875,-0.885498046875,0.9848922702530523,28.13970533145738,1.0056519879429013,14.474789459151761
2,1.709923664122137,11.58015267175572,-30.00763358778626,0.1767578125,-0.518310546875,-1.2041015625,1.322781055238012,32.20996504774779,1.0602478690041006,20.02112999961739
2,3.442748091603054,3.4656488549618323,-22.633587786259536,0.25,-0.22900390625,-0.994140625,1.0503610671350825,23.154751833834272,1.0879156300753787,23.804048198837727
2,-4.2671755725190845,8.198473282442748,2.091603053435115,0.4296875,-0.102294921875,-1.010986328125,1.1032628672956108,9.476209941889756,1.0887853277212043,23.384187744942004
2,-4.595419847328245,3.725190839694656,2.3435114503816794,0.28857421875,-0.06982421875,-0.965087890625,1.009725278420934,6.362937708592892,1.0942045076685383,19.86871397270442
2,-1.3816793893129773,4.2671755725190845,0.8778625954198473,0.31201171875,-0.134765625,-1.024658203125,1.079554315238619,4.570390359476216,1.1131369166656515,15.154850978308186
2,-1.969465648854962,3.0458015267175567,0.7938931297709924,0.284423828125,-0.1025390625,-1.0400390625,1.0830939132270745,3.7129460248800115,1.0651994882634641,9.455447173734632
2,-2.839694656488549,4.908396946564887,1.267175572519084,0.3583984375,-0.13623046875,-1.064453125,1.1314011825787313,5.810504303305023,1.0814075113521937,5.986597667628783
2,3.778625954198473,2.519083969465649,1.6793893129770991,0.1796875,-0.10546875,-0.931640625,0.9546546543296184,4.841915593182395,1.0516858687589954,5.05973879788731
2,5.022900763358779,-4.137404580152672,-8.717557251908397,0.0693359375,-0.25341796875,-0.93896484375,0.9750298030895476,10.87857771855858,1.0447467736927183,5.962866799880448
2,7.0381679389312986,2.6412213740458017,-26.145038167938928,-0.019775390625,-0.4990234375,-1.021728515625,1.1372531015081706,27.2043172876347,1.0562865309466285,10.489652185512146
2,9.64885496183206,-5.068702290076335,-31.6412213740458,-0.220703125,-0.5556640625,-1.021728515625,1.183808083846379,33.46578902433452,1.0764293650704895,16.440220785403046
2,4.977099236641221,5.312977099236641,-32.618320610687014,0.366943359375,-0.5791015625,-1.167236328125,1.3536789480427345,33.42086297404597,1.12088491816329,21.962292519551234
2,-6.015267175572518,3.458015267175572,-22.50381679389313,0.11962890625,-0.24609375,-0.8994140625,0.9401164102505538,23.549163022804994,1.117977269347477,25.703742005475753
2,-5.8320610687022905,9.6793893129771,-7.877862595419848,0.047119140625,-0.123291015625,-0.966064453125,0.975039186668304,13.775493924123497,1.1179791460632285,26.283125246588742
2,-0.7251908396946565,4.190839694656488,0.9236641221374046,0.1796875,-0.07275390625,-0.994140625,1.012865396193529,4.352263148157449,1.0931016050003002,21.712714418693288
2,-1.0610687022900758,4.145038167938932,0.7786259541984732,0.18017578125,-0.080322265625,-0.975830078125,0.9955698468101696,4.348961552049128,1.0554539575930582,15.889348924236208
2,-0.8015267175572519,4.083969465648855,0.8091603053435115,0.1865234375,-0.073974609375,-0.98583984375,1.0060533947529946,4.239810381969211,0.9859288469351102,10.053138405820858
2,-0.4122137404580153,4.091603053435114,0.4351145038167939,0.178955078125,-0.090576171875,-0.993408203125,1.0134539066648742,4.1352702869502584,1.0005963462179743,6.1703598586499115
2,-0.5877862595419847,4.099236641221374,0.6946564885496184,0.18408203125,-0.073486328125,-1.00146484375,1.0208909187164088,4.199021477049425,1.0097666926275952,4.255065369235098
2,-0.7251908396946565,3.946564885496183,1.038167938931298,0.182861328125,-0.07177734375,-0.990966796875,1.010250189264096,4.144764024505304,1.0092436512417087,4.213565544504668
2,-0.8244274809160306,4.152671755725192,0.7938931297709924,0.183837890625,-0.080078125,-1.004150390625,1.0239760168701733,4.307508523913201,1.0149248852537096,4.205274938877483
2,-0.3969465648854962,4.0,0.7633587786259542,0.199951171875,-0.066162109375,-0.979248046875,1.0016409701882394,4.091489117702711,1.0140424003407584,4.175610686024183
2,-0.7404580152671756,4.412213740458014,0.7862595419847328,0.17529296875,-0.07861328125,-0.9970703125,1.0154097108807498,4.5424786440028475,1.0144335611839335,4.2570523574347
2,-0.9465648854961832,4.297709923664122,0.9847328244274808,0.19384765625,-0.06884765625,-0.97607421875,0.997515811460229,4.50954481138844,1.0097585397326976,4.319157024302504
2,-0.7480916030534351,3.931297709923664,0.5801526717557252,0.17626953125,-0.07568359375,-0.988525390625,1.0069664353494205,4.043676526770584,1.0091017889497624,4.298939524755559
2,-0.8778625954198473,4.343511450381679,1.045801526717557,0.192626953125,-0.055908203125,-0.991455078125,1.011540430327299,4.553068777134692,1.0066146716411875,4.348051575399858
3,-0.4961832061068702,2.5114503816793894,0.7022900763358778,0.226806640625,-0.13232421875,-1.010498046875,1.0440580701462852,2.654579466691456,1.0150980916327967,4.060669645197607
3,-1.519083969465649,2.83206106870229,-1.2442748091603049,0.331298828125,-0.145751953125,-0.998291015625,1.0618792291189918,3.4462161574482795,1.024391995280445,3.8414171478866934
3,0.6793893129770993,3.206106870229008,-0.2290076335877863,0.431396484375,-0.209716796875,-1.004150390625,1.1128351488944621,3.285290793546078,1.0474558627672919,3.5965663443182208
3,0.0534351145038167,9.244274809160306,2.893129770992366,0.3701171875,-0.06201171875,-0.901123046875,0.9761428847020925,9.686571732586312,1.0412911526378261,4.725145385481366
3,-0.6641221374045801,8.030534351145038,0.9618320610687024,0.364990234375,-0.13232421875,-1.001220703125,1.0738577496219108,8.115150096702523,1.0537546164967484,5.437561649394933
3,3.66412213740458,1.137404580152672,-0.816793893129771,0.19091796875,-0.080810546875,-0.89111328125,0.9149114139073816,3.922579824633869,1.0279252852489678,5.691161720983414
3,-1.83206106870229,0.015267175572519,0.4503816793893129,0.00146484375,-0.173828125,-1.040283203125,1.0547073079827585,1.8866702158125244,1.0264909010217211,5.379252532656264
3,-4.3893129770992365,1.305343511450382,-1.129770992366412,0.26806640625,-0.111572265625,-0.996826171875,1.0382535266260609,4.716606045559663,1.0115745765680408,5.665515583058982
3,-0.2595419847328244,2.312977099236641,0.0534351145038167,0.345947265625,-0.113525390625,-0.972412109375,1.0383413867168687,2.3281066158778545,1.0240142769709961,4.193822559717289
3,-2.6335877862595423,3.091603053435115,4.938931297709924,0.099853515625,0.098876953125,-0.89794921875,0.9088785264795791,6.394281541459009,0.9910184323425298,3.849648848668587
3,-4.1679389312977095,9.412213740458014,24.274809160305335,0.1162109375,0.244140625,-1.12548828125,1.1575117701350162,26.36717357246198,1.0395385035880564,8.33856759823421
3,-5.045801526717558,-3.2977099236641223,37.9236641221374,0.176025390625,0.49560546875,-1.023681640625,1.1508839299218157,38.39973052296526,1.0587738279758683,15.641179659664754
3,-9.473282442748092,4.824427480916031,40.45801526717558,0.15478515625,0.652099609375,-0.760498046875,1.0136812242727267,41.83143770082149,1.0538593675052013,23.06414599071712
3,-0.7709923664122137,8.954198473282442,13.427480916030529,0.372802734375,0.000244140625,-0.943359375,1.0143514424313262,16.157640399463148,1.049061378648093,25.830052747434184
3,-0.3587786259541985,4.1679389312977095,1.137404580152672,0.19384765625,-0.08642578125,-0.98583984375,1.0084277500264038,4.3352192812383725,1.0689712233574578,25.418240295390053
3,4.251908396946565,0.0839694656488549,0.7404580152671756,0.324462890625,-0.19287109375,-0.878662109375,0.9563067126442104,4.316717961548966,1.0287302118592965,21.00814917320745
3,-0.6564885496183206,3.4274809160305337,-0.8778625954198473,0.326904296875,-0.169189453125,-0.94775390625,1.0167246220959776,3.5985059930436054,1.001898350294129,14.047904267223121
3,-2.053435114503817,2.458015267175572,1.251908396946565,0.3974609375,-0.103515625,-0.98095703125,1.0634695005576478,3.4388529275749526,1.0118560055511132,6.369387312573813
3,0.3053435114503817,-1.129770992366412,0.5648854961832062,0.37060546875,-0.1787109375,-0.954833984375,1.0397085891570648,1.2995048206819335,1.0169274348962607,3.3977601968175706
3,0.3282442748091603,0.0229007633587786,-0.6870229007633588,0.184814453125,-0.13818359375,-1.025146484375,1.0507979834830194,0.761754038440694,1.025401481587584,2.6830671482580346
3,0.3053435114503817,3.770992366412214,1.007633587786259,0.228271484375,-0.26904296875,-1.095458984375,1.150878958040543,3.915219474660271,1.0643159306668504,2.602767450880296
3,-1.374045801526718,7.412213740458015,-3.3511450381679397,0.392333984375,-0.198486328125,-0.9794921875,1.073651583672116,8.249793177150892,1.0757013229820782,3.5330248877017523
3,-3.4122137404580157,6.610687022900763,0.6793893129770993,0.32861328125,-0.096435546875,-0.835205078125,0.9026926530335556,7.470338370107911,1.0435459534772598,4.339321976208344
3,-7.0458015267175576,1.129770992366412,6.709923664122138,0.246826171875,0.090576171875,-0.83740234375,0.8777071763133704,9.795038398466557,1.011145670908521,6.03842869176527
3,-5.312977099236641,11.587786259541993,32.11450381679389,0.2783203125,0.3720703125,-1.125,1.2171785053121607,34.55207477782937,1.044421775274349,12.796492839643005
3,-10.00763358778626,9.412213740458014,41.015267175572525,0.18115234375,0.498046875,-1.0078125,1.1386627668013185,43.25499553816936,1.0419785370265042,20.664448052344824
3,-2.0839694656488548,4.2824427480916025,33.618320610687014,0.253173828125,0.180908203125,-1.148681640625,1.1900816260720628,33.953994246736016,1.0652645455064935,25.805288266261847
3,0.2290076335877863,4.954198473282442,15.06870229007634,0.371826171875,0.0634765625,-1.029296875,1.0962372156439495,15.86386824566655,1.1039734580285723,27.483994241373573
3,-0.2748091603053435,5.763358778625954,0.4885496183206107,0.20361328125,-0.121826171875,-1.002685546875,1.0303777415914643,5.79055310098386,1.1345075710841912,26.683097181877038
3,-3.908396946564885,3.839694656488549,1.16030534351145,0.392333984375,-0.161376953125,-0.924072265625,1.0167979289872653,5.600458038157742,1.094431455819212,20.89277383394271
3,1.916030534351145,2.83206106870229,1.030534351145038,0.405517578125,-0.19580078125,-0.939453125,1.0418035449060161,3.5712384342570878,1.0750596114401516,12.956022413160255
3,-1.022900763358779,4.480916030534352,0.5725190839694656,0.37109375,-0.128173828125,-1.0087890625,1.0824945607830594,4.631707303564091,1.053542198382351,7.09156502452587
3,-0.2137404580152672,-3.320610687022901,0.4961832061068702,0.163818359375,-0.05859375,-0.86572265625,0.883031935975101,3.364273783773516,1.0109011424485812,4.591646132147263
3,1.908396946564886,1.954198473282443,1.274809160305344,0.1650390625,-0.21484375,-0.952392578125,0.9901754147283832,3.014300743760653,1.002860677075965,4.036395660702622
3,1.8778625954198471,1.190839694656489,-5.213740458015267,0.23486328125,-0.215576171875,-0.9443359375,0.9966966487421336,5.668117559577587,0.9988404210269387,4.049927564986591
3,-7.717557251908397,5.083969465648855,1.6183206106870232,0.235595703125,-0.087890625,-1.0234375,1.0538759005215481,9.382238382342894,1.001254892150045,5.212127554603752
3,-9.847328244274811,1.931297709923664,24.274809160305335,0.247314453125,0.500732421875,-1.021728515625,1.1643996550508706,26.267206630399293,1.0176359110036073,9.539227419970793
3,-0.3129770992366412,8.664122137404581,38.95419847328245,0.187744140625,0.486572265625,-0.963134765625,1.0952757683661174,39.907324462714755,1.0600846774818105,16.84783755575904
3,-2.740458015267175,-10.35114503816794,36.47328244274809,0.111083984375,0.489990234375,-0.7939453125,0.9395633244269463,38.01258536173391,1.0499622594215232,23.847494479353692
3,3.152671755725191,0.1526717557251908,18.87022900763359,0.3359375,0.26904296875,-0.943603515625,1.0371237716106614,19.132385911455994,1.0580476839952289,26.540348149729375
3,-2.3969465648854964,14.412213740458007,14.55725190839695,0.388427734375,-0.097900390625,-1.092529296875,1.163649799487116,20.624520378910383,1.0800024637883425,28.788804549042872
3,0.1908396946564886,-0.7480916030534351,23.366412213740464,0.113525390625,0.356201171875,-0.8330078125,0.9130549298085615,23.379163384904412,1.0297335187398806,28.211195899943892
3,-0.9770992366412212,4.427480916030534,0.7786259541984732,0.190673828125,-0.095947265625,-0.98095703125,1.0039118903925632,4.6003878702356085,1.0114607431451696,21.149808581448067
3,-0.7251908396946565,4.366412213740458,0.8244274809160306,0.193115234375,-0.087890625,-0.991943359375,1.0143815277886137,4.502348059131862,1.0264243838175031,14.447761120927657
3,-0.5725190839694656,4.503816793893129,1.67175572519084,0.34033203125,-0.139404296875,-0.94873046875,1.017520983477274,4.838068934933789,1.0225038261908257,11.588897725623216
3,1.83206106870229,0.7175572519083969,1.2442748091603049,0.33740234375,-0.128662109375,-0.947265625,1.0137585729666894,2.327993979788569,0.9925255808867404,7.929592445798852
3,-3.4198473282442747,5.732824427480916,2.0229007633587788,0.34521484375,-0.178466796875,-0.95556640625,1.031567177980038,6.975152984932942,1.0162280305210356,4.648790365804558
3,1.030534351145038,2.984732824427481,1.4961832061068705,0.370361328125,-0.142578125,-0.90234375,0.9857587322783867,3.4941658902148602,1.0125973988982004,4.427545969800408
3,-2.816793893129771,-5.67175572519084,0.6183206106870229,0.06396484375,-0.0751953125,-1.008056640625,1.0128790781559736,6.362818653726398,1.0122969089716722,4.7996400887193165
3,-2.816793893129771,2.603053435114504,-1.122137404580153,0.060791015625,-0.086181640625,-0.932861328125,0.9388040691606926,3.9961740924529896,0.9965535261083561,4.631261120223156
3,-2.793893129770992,4.519083969465648,-0.1221374045801527,0.3203125,-0.14501953125,-1.01171875,1.0710768372072017,5.314402721779798,1.0080171789564585,5.2285428686214015
3,-1.137404580152672,5.183206106870228,-1.022900763358779,0.2841796875,-0.178466796875,-0.95556640625,1.0127762088082244,5.404224338138553,1.0042589851220958,4.914357139262524
3,-4.2595419847328255,6.351145038167938,18.6793893129771,0.21484375,0.31640625,-1.040283203125,1.1083591000470627,20.184160282788827,1.028779058675831,8.252356017777318
3,-6.33587786259542,4.404580152671755,36.48091603053435,0.154296875,0.495361328125,-1.00537109375,1.1313537939939924,37.28807998594102,1.0524740018434349,14.437408284220243
3,-7.022900763358778,13.15267175572519,40.33587786259542,0.352294921875,0.2744140625,-1.00244140625,1.0974076556326477,43.003452796165696,1.0841947191378256,22.238864024962783
3,-4.916030534351145,7.320610687022902,18.44274809160305,0.29833984375,0.156982421875,-0.818359375,0.8850775162644826,20.442447363658655,1.046994854949282,25.264472953338554
3,-1.122137404580153,3.625954198473282,0.2977099236641221,0.199951171875,-0.106201171875,-0.990234375,1.0157870236784134,3.8072782145296395,1.0475970179233198,24.945083728616773
3,-0.8244274809160306,4.251908396946565,0.9083969465648856,0.196044921875,-0.10205078125,-0.9921875,1.0165057838020206,4.425335094638898,1.0292263546743112,21.793318690986784
3,-0.6641221374045801,5.641221374045801,1.16030534351145,0.31640625,-0.11962890625,-0.98095703125,1.0376418878439937,5.797477494097174,1.0104839734443116,15.495198192618016
3,-1.778625954198473,4.969465648854962,0.916030534351145,0.355712890625,-0.132080078125,-1.002685546875,1.0720798074333446,5.357071127020953,1.0054184038044511,7.965921858789068
3,1.480916030534351,3.145038167938931,-0.8778625954198473,0.32861328125,-0.193359375,-0.893798828125,0.9717257234795761,3.58538981196237,1.0227480452474698,4.594510348449811
3,3.442748091603054,2.519083969465649,1.1526717557251909,0.43701171875,-0.128173828125,-0.92333984375,1.0295456471654476,4.418930939028339,1.0254997699448765,4.716840893349551
3,-5.786259541984732,4.290076335877862,1.4274809160305342,0.273681640625,-0.054443359375,-1.056640625,1.092865559067362,7.343245618968492,1.0407717249979447,5.30042299821547
3,1.847328244274809,6.854961832061068,0.9083969465648856,0.2080078125,-0.111083984375,-0.94921875,0.9780711308474568,7.15739536239531,1.0288575735986374,5.5724065718750975
3,0.1679389312977099,4.00763358778626,-1.5572519083969465,0.314453125,-0.150390625,-0.930908203125,0.994026252447878,4.302832086522075,1.013246862601544,5.361558763775322
3,0.7328244274809159,2.50381679389313,-0.6641221374045801,0.29052734375,-0.09619140625,-0.91015625,0.9602308699041318,2.692060250493074,1.0109478918864552,5.182892851481462
3,-4.961832061068702,6.7175572519083975,13.16030534351145,0.27490234375,0.237548828125,-1.005859375,1.0694642708469482,15.586500234798459,1.0189316166227553,7.416406710635487
3,-2.236641221374046,7.106870229007634,39.41984732824427,0.23388671875,0.59326171875,-0.92578125,1.1241589687376996,40.11775830959641,1.0251902985568229,13.97130924876107
3,-1.984732824427481,-1.4351145038167938,35.51908396946565,0.244384765625,0.453857421875,-0.889892578125,1.0284061812642742,35.60342742003046,1.0352573086401864,19.660515660288098
3,3.0,6.137404580152673,15.32824427480916,0.44482421875,-0.1025390625,-1.32861328125,1.4048473568465787,16.781621123380745,1.1174215295199263,22.156273467659833
3,1.67175572519084,4.274809160305344,0.8473282442748091,0.237060546875,-0.110595703125,-1.011474609375,1.0447535584264338,4.667625275799747,1.134326067224387,22.55138647272117
3,-0.900763358778626,3.488549618320611,0.6870229007633588,0.192626953125,-0.095458984375,-0.967529296875,0.9911258754969317,3.667881341343574,1.1186583881543837,20.16766269403019
3,0.2213740458015267,5.198473282442748,-0.1450381679389313,0.392333984375,-0.181884765625,-0.907958984375,1.0056826241758905,5.205205760254315,1.0949631192420217,13.18515218416177
3,-2.3435114503816794,3.0763358778625958,-1.4122137404580148,0.382080078125,-0.15576171875,-1.050537109375,1.1286607627192242,4.117066431360209,1.1150140355330118,6.8878799864277225
3,0.7480916030534351,5.824427480916032,2.038167938931298,0.34130859375,-0.0771484375,-0.9580078125,1.0199129405921512,6.215925118137798,1.0380271522821265,4.774740785379133
3,-9.106870229007631,10.29770992366412,2.610687022900763,0.358154296875,-0.10205078125,-1.008544921875,1.075105446811433,13.992626693064404,1.0440975299591262,6.6397410688320635
3,-12.6412213740458,7.3740458015267185,3.603053435114504,0.16552734375,-0.04736328125,-0.99755859375,1.012307132200586,15.07179562517143,1.0483337812998568,8.920523925597635
3,-1.137404580152672,3.2519083969465647,0.4274809160305343,0.3603515625,-0.21923828125,-1.115966796875,1.1930216109899656,3.4715036129398102,1.085801578662672,8.573783496134734
3,-1.66412213740458,7.068702290076335,0.2977099236641221,0.20556640625,-0.149169921875,-1.03173828125,1.062540866963449,7.268045524938497,1.072577599511517,9.203979314850391
3,-7.473282442748093,8.534351145038169,9.732824427480915,0.193115234375,0.084716796875,-0.912841796875,0.9368834375430328,14.947005428247842,1.0559716989016934,10.9501953768724
3,-11.16030534351145,4.0381679389312986,32.3969465648855,0.2744140625,0.514892578125,-1.07275390625,1.2211545307947709,34.50248342353735,1.085181515698361,15.05216672296699
3,1.1450381679389308,4.541984732824427,38.11450381679389,0.275390625,0.47705078125,-0.95458984375,1.102115789751592,38.40125178844621,1.103143247208562,19.718057955621948
3,-4.198473282442748,5.8320610687022905,26.7175572519084,0.20556640625,0.165771484375,-1.00927734375,1.0432537989470667,27.667091999728875,1.0731896847999822,24.557175632979757
3,-4.6030534351145045,4.618320610687022,12.137404580152667,0.176025390625,-0.0048828125,-1.091552734375,1.1056654792133709,13.778010601386795,1.0818146072499668,25.859168648269417
3,-0.8396946564885496,4.152671755725192,1.0610687022900758,0.181640625,-0.11474609375,-0.9814453125,1.0046864605982788,4.367566441156073,1.0953752118610158,23.743280850851065
3,-0.7786259541984732,3.786259541984733,0.7099236641221374,0.158203125,-0.07861328125,-0.920654296875,0.9374500579247184,3.9301413848235187,1.0386343172870052,17.628812443108295
3,0.4427480916030535,3.1221374045801533,-0.3816793893129771,0.331787109375,-0.16162109375,-1.033447265625,1.097368358720149,3.1763889878166633,1.037684831080717,10.583839882982389
3,-0.099236641221374,2.221374045801527,-1.2442748091603049,0.28759765625,-0.165283203125,-0.8203125,0.884840972588862,2.5480522685048,1.006002265809076,5.560031936737574
3,-4.961832061068702,5.122137404580153,-1.870229007633588,0.369384765625,-0.094970703125,-0.78076171875,0.8689380881244343,7.372504698855234,0.9586567875912884,4.278930756231262
3,2.099236641221374,4.931297709923665,1.824427480916031,0.386962890625,-0.159423828125,-0.936767578125,1.0260066915576445,5.661539297122858,0.9629208337831617,4.537725327424619
3,-3.0,9.16030534351145,0.7786259541984732,0.230712890625,-0.075927734375,-1.091064453125,1.1177723827420407,9.670442201001768,0.9989852987466261,5.68578549066027
3,1.519083969465649,7.389312977099237,-1.32824427480916,0.37158203125,-0.291015625,-1.060791015625,1.1610516262306063,7.659882194484327,1.0117219522487175,6.582484131993802
3,-5.5114503816793885,2.969465648854962,1.740458015267176,0.307373046875,-0.062744140625,-0.888671875,0.9424185474320879,6.497923179936129,1.0232374672173628,7.372458314280067
3,-9.099236641221372,4.274809160305344,9.732824427480915,0.243896484375,0.09765625,-1.114013671875,1.144573588450724,13.992782859250882,1.0783645672826208,8.696513946359197
3,-6.206106870229008,6.022900763358778,39.78625954198473,0.13427734375,0.461181640625,-1.1796875,1.2737274073954648,40.715323214143126,1.1279087104501848,15.707270729763252
3,-0.6030534351145038,8.19083969465649,42.9236641221374,0.440185546875,0.446044921875,-1.252685546875,1.400692852611748,43.70233941128586,1.184492804424126,22.513650171820068
3,-0.6641221374045801,-3.801526717557252,12.755725190839687,0.27685546875,-0.098388671875,-0.66162109375,0.7239280026529261,13.326709599218953,1.09706807970859,23.647015652766992
3,-1.129770992366412,2.992366412213741,3.6488549618320607,0.160400390625,0.008544921875,-0.711669921875,0.729572051756419,4.852296546237047,1.0544987805734565,23.317890326027175
3,-0.3129770992366412,4.473282442748092,1.045801526717557,0.171875,-0.097412109375,-1.00048828125,1.0198073031688222,4.604553323671004,1.029545523517076,21.440244418911202
3,1.732824427480916,5.068702290076335,-0.1374045801526718,0.393798828125,-0.18603515625,-0.926513671875,1.0237744773947437,5.358479581051568,0.9795549375169319,14.368875692292892
3,0.0229007633587786,5.068702290076335,1.007633587786259,0.411376953125,-0.098388671875,-0.93310546875,1.0244984841994116,5.1679389312977095,0.9043160638344645,6.66199559629526
3,-2.068702290076336,5.648854961832062,2.374045801526718,0.40576171875,-0.14306640625,-0.85498046875,0.9571322640806827,6.467239365643461,0.9509569161200158,5.290101549580163
3,-2.603053435114504,7.251908396946565,2.862595419847328,0.326171875,-0.063232421875,-1.059814453125,1.1106723667535068,8.219520370526276,1.0271769791194334,5.963546314438007
3,-4.274809160305344,-0.1221374045801527,-1.8778625954198471,0.050537109375,-0.118408203125,-1.09619140625,1.1037255551665117,4.670682908302064,1.0439606295189714,5.97677223136422
3,-4.6412213740458,3.267175572519084,-2.5114503816793894,0.259033203125,-0.201171875,-0.9365234375,0.9922925337817621,6.206670209073665,1.0376642407963748,6.146410356968639
3,-2.5114503816793894,11.70229007633588,-1.931297709923664,0.41259765625,-0.1953125,-1.128173828125,1.2170291636051538,12.123567416181722,1.0761703766775235,7.537536053945442
3,-3.3664122137404577,6.3816793893129775,19.06106870229008,0.0830078125,0.29736328125,-1.00146484375,1.0479728294373922,20.38094460750594,1.0943384897488653,10.320277102317936
3,-7.274809160305343,10.801526717557248,37.93893129770992,0.401123046875,0.336181640625,-1.161865234375,1.2743031888357157,40.111822892525325,1.127064654165307,16.69873760671775
3,-5.732824427480916,2.954198473282444,38.1297709923664,0.321044921875,0.385498046875,-0.78369140625,0.930511045735765,38.67133305778549,1.0924217522791577,23.49886763661443
3,2.49618320610687,-1.3816793893129773,13.35114503816794,0.132568359375,-0.229736328125,-1.00732421875,1.041659844694051,13.652583724830208,1.1022952144616156,24.98805033976574
3,-7.419847328244275,-0.1297709923664122,1.396946564885496,-0.004150390625,-0.077392578125,-1.149169921875,1.1517805113099318,7.551320056126536,1.089245484002571,24.073600867754703
3,-0.0763358778625954,7.610687022900763,11.29770992366412,0.201416015625,0.0830078125,-1.04443359375,1.066911542743739,13.622284450343043,1.0930332266638405,22.721868836322123
3,-0.7022900763358778,4.305343511450381,1.076335877862595,0.165771484375,-0.0810546875,-0.999755859375,1.016642427676643,4.493071669234978,1.0415010744320259,15.598118591664056
3,-0.4961832061068702,5.5114503816793885,0.8473282442748091,0.3134765625,-0.1298828125,-0.98583984375,1.042601217026314,5.598236171981511,1.0639191086901358,8.98349921450326
3,-1.1526717557251909,2.977099236641221,-1.954198473282443,0.3232421875,-0.13671875,-0.962890625,1.0248589581470409,3.743082114279056,1.0605589313807338,7.001598892393029
3,-0.2900763358778626,2.893129770992366,0.3206106870229007,0.384765625,-0.14599609375,-1.0166015625,1.0967397970573243,2.925258170670063,1.0495507885302122,6.076386515301735
3,-2.6946564885496183,4.099236641221374,-0.9694656488549618,0.3251953125,-0.177490234375,-1.02734375,1.092103454455908,5.00047780480268,1.0545891708726463,4.352025186193662
3,-4.0534351145038165,2.6946564885496183,2.099236641221374,0.19970703125,0.012939453125,-0.919677734375,0.9412000121562875,5.30078336612821,1.0395006877685748,4.513567525572308
3,0.099236641221374,8.297709923664122,0.2213740458015267,0.280517578125,-0.193359375,-1.03271484375,1.0874639801111083,8.301255589149722,1.0484732403855337,5.054171409005951
3,-0.4656488549618321,3.610687022900763,0.9618320610687024,0.295166015625,-0.2294921875,-1.011474609375,1.0783647464164348,3.765502695148539,1.0591743980394126,5.058655525179846
3,-2.16793893129771,5.33587786259542,21.480916030534356,0.253662109375,0.348876953125,-1.094482421875,1.1764146233142987,22.239633658971094,1.0751093632908073,8.921530622840052
3,-5.770992366412214,-1.8167938931297711,41.00763358778626,0.243896484375,0.526611328125,-0.876708984375,1.051391282674488,41.451551302857624,1.0669669289345234,16.211745322451044
3,-2.274809160305344,7.083969465648855,32.45038167938932,0.371337890625,0.24951171875,-1.136474609375,1.2213609067599398,33.29241131615582,1.122999107855254,21.810070912456563
3,0.4732824427480916,2.091603053435115,11.572519083969471,0.0869140625,0.139404296875,-1.029296875,1.0423241670095886,11.769536845287936,1.11397114523495,22.503727163684207
3,-3.709923664122138,8.916030534351146,13.519083969465653,0.257568359375,0.213623046875,-0.92236328125,0.9811882023880812,16.613993061770508,1.0945358364292792,25.0734252370086
3,-3.053435114503817,0.648854961832061,23.10687022900763,-0.0146484375,0.27685546875,-0.8974609375,0.9393080759986856,23.316773587702443,1.0471145269661568,25.28885322275487
3,-0.7480916030534351,4.122137404580153,0.3435114503816794,0.277587890625,-0.105712890625,-0.931396484375,0.9776142712604189,4.203529224989542,1.0323591246833428,17.839248807181256
3,-1.251908396946565,3.267175572519084,-4.022900763358779,0.32421875,-0.17333984375,-0.9951171875,1.0608594233642585,5.331551501002627,1.0002588280042066,12.247076844150616
3,-0.8396946564885496,5.320610687022901,-1.656488549618321,0.377685546875,-0.160888671875,-0.810302734375,0.9083622946773886,5.635418308698507,0.9734664535377664,11.02025313683273
3,-3.6488549618320607,6.122137404580152,2.267175572519084,0.3525390625,-0.130126953125,-1.0966796875,1.1592769951539073,7.478956746075824,1.0090842120909318,9.193245873693794
3,1.67175572519084,1.603053435114504,1.045801526717557,0.299560546875,-0.2060546875,-1.076171875,1.135931758525039,2.5413083940808003,1.0484089485962023,5.038152834969464
3,0.816793893129771,-1.251908396946565,3.839694656488549,0.105224609375,0.01318359375,-0.889404296875,0.8957042083534048,4.1203982760488245,1.0320269360147996,5.0215266451813205
3,-0.900763358778626,4.0534351145038165,1.900763358778626,0.3583984375,-0.169677734375,-0.986083984375,1.0628271721149916,4.56668503425473,1.0324204857649462,4.868553351831741
3,-6.412213740458015,6.076335877862595,4.183206106870228,0.23486328125,-0.022705078125,-0.713623046875,0.7516210045517204,9.7743314905151,1.0010722277398127,5.696335988195061
3,-5.152671755725192,7.801526717557253,31.26717557251908,0.23681640625,0.490966796875,-1.15966796875,1.2813899498777153,32.635105540349365,1.025494818684574,10.72756574704977
3,-5.977099236641222,-2.679389312977099,40.83969465648855,0.18896484375,0.424560546875,-0.82470703125,0.9466261445414708,41.361642883357185,0.9876336958878607,18.491632644905046
3,-5.6030534351145045,5.67175572519084,19.56488549618321,0.18603515625,0.029296875,-0.91552734375,0.9346965836032879,21.126944059227867,0.9954321709378371,21.892941801540854
3,-9.893129770992369,6.549618320610688,8.778625954198473,0.298828125,0.13525390625,-1.181396484375,1.2260870771444046,14.75926117578728,1.0280841519437198,23.931457029847365
3,-0.0610687022900763,-3.732824427480916,13.6412213740458,0.001953125,0.071044921875,-0.821044921875,0.824115258539857,14.142864920818612,1.0425830027413472,24.805163715908066
3,-0.4732824427480916,-0.916030534351145,21.0,-0.06005859375,0.230224609375,-1.032470703125,1.0595311030151644,21.025296863789517,0.9982112333688369,22.483201980596096
3,-0.931297709923664,4.076335877862595,0.7557251908396947,0.19873046875,-0.086669921875,-0.9892578125,1.012737129841549,4.2491116927810415,1.0114334304288526,15.060695742480869
3,-1.221374045801527,3.770992366412214,0.916030534351145,0.194580078125,-0.097412109375,-0.9873046875,1.0110000355170572,4.0683227412731675,1.0266941208116065,11.648971478889928
3,-0.0839694656488549,3.786259541984733,-0.1374045801526718,0.346435546875,-0.1640625,-0.947265625,1.0218836804409155,3.789682336169976,0.9858534414709087,9.455055710966468
3,0.6946564885496184,2.8091603053435104,0.5114503816793893,0.385009765625,-0.175048828125,-0.907958984375,1.001630734932707,2.938623955378048,1.0213565367494786,7.214207517878355
3,5.648854961832062,1.419847328244275,1.847328244274809,0.31787109375,-0.063232421875,-0.898681640625,0.9553371460455419,6.110495107389626,1.000517745355554,4.231247166598377
